timestamp,acc_x,acc_y,acc_z,gyro_x,gyro_y,gyro_z
1747503144.066422725,-0.06345245393458754,1.0756415122747423,9.818998864889146,6.807146783081999e-06,-0.0035436609232569302,0.0026104203575969863
1747503144.076391309,-0.055494749746285384,1.0912267539650202,9.795408273339271,0.0006594161759019893,-0.003767680104459781,0.0024891367766331452
1747503144.086524977,-0.07948344075120986,1.0916746506839992,9.802085208892823,0.0007679316679443117,-0.003132297461968387,0.0022016243500468475
1747503144.096556561,-0.05888186818454415,1.0847636072337627,9.821779800653458,0.0002236254449291388,-0.003556118223359831,0.0023927748178818866
1747503144.106488104,-0.06159138112328947,1.0898235683888198,9.78800686776638,0.0009846700684131033,-0.004639754569798195,0.002437235824146974
1747503144.116461938,-0.08098481386899949,1.083468375876546,9.815489366054535,0.0009902808468864525,-0.0022222648887922627,0.002907795582817959
1747503144.126471647,-0.06364940917119384,1.1042884835600852,9.866543744802476,0.00109626984689659,-0.0016182935031502426,0.002075563073691864
1747503144.136442565,-0.04061300575733185,1.0888307111710311,9.824025131464005,0.0013095787772760914,-0.0045556938665547156,0.002008355836907355
1747503144.146421941,-0.07855754328891636,1.0907891629636288,9.769167138934137,0.001745927839061217,-0.004440168851299521,0.002124317516954566
1747503144.156443609,-0.07770839966833591,1.0875290478765964,9.851821625232697,0.0009884188447551612,-0.0012849770464835087,0.002203985304771041
1747503144.166386526,-0.03361442766152323,1.1048441152274608,9.825347771644592,0.0010910051623315047,-0.004991917572515093,0.001981981309477026
1747503144.176421319,-0.0891991011891514,1.096588723808527,9.782881198525429,0.0016346997718070266,-0.005215991889474887,0.0018605767939519654
1747503144.186452320,-0.0785274849459529,1.0906167431920768,9.835992043018342,0.0013173432962550284,-0.0002972714230559263,0.0023720903265755126
1747503144.196419738,-0.03066178018692881,1.0878910636156798,9.825519679784776,0.00087870727089123,-0.002041952628348573,0.002267076735322049
1747503144.206459197,-0.04798348960932344,1.099349413588643,9.798292704820634,0.0008723791424103894,-0.005748945039208035,0.0020449514153553267
1747503144.216405031,-0.08523625127971172,1.0955890692025423,9.817955721616746,0.0018597074955199744,-0.0024587439708412665,0.0025688664621390184
1747503144.226548032,-0.03323052826104686,1.0787696995586158,9.82285101056099,0.002405955124608852,-0.0014772137147377584,0.0026282697786843222
1747503144.236591867,-0.05884497134014965,1.0691531494259834,9.827852718830108,0.0014169508525476587,-0.005748679243247678,0.0020455571284587245
1747503144.246544701,-0.09132946112193167,1.0782611379772424,9.793664633631707,0.0015288430195912548,-0.004004158926434459,0.0021502077859913674
1747503144.256469535,-0.06704240223392845,1.0823588667064905,9.814202978610993,0.0017533993843128128,-0.0009323873918361152,0.002660208466265208
1747503144.266424411,-0.026679141107015313,1.0713386924564838,9.832756193876268,0.0015305981311748878,-0.003555477920371181,0.0023942283732854464
1747503144.276427704,-0.06720440208446235,1.063718016296625,9.802133740782738,0.0015255461874078185,-0.0056458786244273675,0.0019432671655759501
1747503144.286437122,-0.08787194768898189,1.0694280416518451,9.796333302855492,0.0008787074659469739,-0.002041952238237085,0.002267076475247724
1747503144.296454706,-0.039343287446536125,1.0768515204638243,9.841353939771652,0.0007699787779765662,-0.0019329769347878037,0.002273488607735605
1747503144.306470832,-0.04673529636114836,1.07110253803432,9.792727324962616,0.0015250939181562903,-0.005331356178797106,0.001744978437737063
1747503144.316493083,-0.08304114256985486,1.0830106850713492,9.772456782460214,0.0017445439835768115,-0.004670793920362529,0.001893363453870176
1747503144.326541876,-0.08299129505641759,1.0672854025661946,9.81144309282303,0.002078147692335732,-0.0018107438224626465,0.00249936341924878
1747503144.336439877,-0.044919662810862064,1.0516899282485248,9.819628025293351,0.001313460386579747,-0.003440273836833287,0.002509463145593715
1747503144.346407294,-0.07663904899265618,1.0569671134650709,9.78825186610222,0.00022024841232566784,-0.0046652584984249075,0.0020006117337629465
1747503144.356438879,-0.08316088258288801,1.06451206818223,9.815261324644089,0.0012043867750355388,-0.002375162584579136,0.002138896373365311
1747503144.366398713,-0.031758731547743085,1.0704508658498526,9.799504247903824,0.001748480078451597,-0.003234565708645007,0.0023051256090992553
1747503144.376401714,-0.060682349223643545,1.0560299509763718,9.79007853627205,0.0008724848626235844,-0.005107336477445605,0.0018662620187009041
1747503144.386429215,-0.09908507091924548,1.0499248000234367,9.803553444743157,0.001092547663154284,-0.003798877320139513,0.001944901212561201
1747503144.396414133,-0.07327148218173533,1.0624285590648652,9.83164990067482,0.0005533466828882015,-0.001811490235775979,0.0024976674745741307
1747503144.406448926,-0.024798272273037585,1.0699678127467633,9.773926187753679,0.0008763673171687968,-0.0039919146272039,0.0023673691973501013
1747503144.416474385,-0.08684562429785729,1.0694851250946522,9.832305958271027,0.0006572089901225723,-0.003901838664892799,0.0020468275915373414
1747503144.426441219,-0.06515224866103381,1.0805298576503992,9.817194414138795,0.0006621546285092148,-0.002453048603193645,0.002676477935826935
1747503144.436478054,-0.023375336355529727,1.0768015998601914,9.771411300301553,0.001313779887888259,-0.0035430206202682803,0.002611873913000546
1747503144.446455388,-0.0579224999807775,1.0841923342645168,9.81182433128357,0.0008747185109655908,-0.0037989852509844723,0.001944659083364437
1747503144.456450514,-0.0711447813268751,1.0804126940667629,9.849773930311203,0.0008786540206731447,-0.0023627583396385763,0.002356421368630679
1747503144.466409765,-0.029984156414866448,1.0830027913302183,9.792354272603989,0.00043956627871575914,-0.003792916416605859,0.002053118529389678
1747503144.476412766,-0.07279129330068827,1.0864736254513265,9.816119695901872,0.0002218705284012499,-0.004004798709274459,0.002148754230587807
1747503144.486444059,-0.06788569863885642,1.0846740717440844,9.837232822179795,0.0010972807557986543,-0.0016057286623138703,0.0022934511327152157
1747503144.496407685,-0.01300161405117251,1.0824090065807104,9.800244505405427,0.0008767394185095811,-0.0037738568696833535,0.002380435591522628
1747503144.506451227,-0.04863326144870371,1.088942392989993,9.790669105052949,0.0006537256196293839,-0.005652588542017606,0.0018333541641471491
1747503144.516520437,-0.09046368034556508,1.0916410291939975,9.85334657907486,0.0012065938957963745,-0.002241005064443419,0.002581205688498277
1747503144.526494854,-0.017571701874257998,1.089411924406886,9.800398871898652,0.0009887117534639212,-0.002561917276169593,0.0026703084526844686
1747503144.536485605,-0.05166018683463335,1.1045799672603607,9.80238575577736,0.0013070256276255731,-0.00576129908980383,0.0018275481348741537
1747503144.546517190,-0.08764763387851418,1.0889264593273402,9.82341935992241,0.0005509801365660164,-0.0029080647597445443,0.002323392449478542
1747503144.556538566,-0.04283841948956251,1.0853133185952903,9.81471870303154,0.0006612508702291342,-0.0018240003309668964,0.002279900220074836
1747503144.566495192,-0.03532301833620295,1.0934930616617202,9.8186059319973,0.0012038550530776612,-0.003555637866081181,0.0023938647893788126
1747503144.576508401,-0.06949482497759164,1.0912495581060648,9.812589147090913,0.0009837130599149374,-0.004331512398972938,0.002130002741703505
1747503144.586534444,-0.07338266607373953,1.093135065883398,9.810489996671677,0.0009878873178530275,-0.002465452327985554,0.00245895359074738
1747503144.596521986,-0.052202438428066676,1.0795342960953713,9.817853980064392,0.001419795415479567,-0.0037924365794758594,0.002054208630923767
1747503144.606542196,-0.05874137055594474,1.0871368458867074,9.810953096151353,0.0007661761662491912,-0.0035809808087005923,0.001957604282901419
1747503144.616582530,-0.0606896856520325,1.0881655903905632,9.793948223590851,0.0010926531232931538,-0.003157268498302758,0.0017662118159067785
1747503144.626428614,-0.061897327546030285,1.0847341518849134,9.803654016852379,0.0010953659585793468,-0.00301682732239581,0.002317464835458514
1747503144.636445032,-0.0558669204544276,1.0850794299691917,9.809993568062783,0.0012020202287133536,-0.0034717371085477016,0.0019646216083440476
1747503144.646473408,-0.057509535807184875,1.0749294675886631,9.789360498189927,0.0013112006007680577,-0.0038952364180731944,0.002156498593806541
1747503144.656446659,-0.06547456271946431,1.0914798653125763,9.816816684007645,0.0007700055656320622,-0.002786364279637403,0.002548055834784921
1747503144.666447910,-0.0527649588463828,1.0867390890419484,9.804278499484063,0.0017495430022187019,-0.0029011969770389077,0.0024336691648511395
1747503144.676440994,-0.0566036696266383,1.0733286461234093,9.796299389004707,0.001857607265306797,-0.003978870859497666,0.0025863470978332165
1747503144.686527704,-0.0849391213618219,1.0680278527736664,9.82434672832489,0.0014214177591201837,-0.003131978350771363,0.0022023515178601154
1747503144.696508246,-0.05470912150572986,1.071413609907031,9.815247291326523,0.0016413735390660622,-0.0024651326966398796,0.0024596804984863226
1747503144.706483831,-0.04495680633466691,1.0674435697495939,9.798597344756127,0.0009846437358876764,-0.003786366184651295,0.0021626682069861704
1747503144.716464957,-0.08397973945364356,1.0674565798044204,9.814388920068742,0.0015328589572838778,-0.003100513518610997,0.002747192664998295
1747503144.726424791,-0.06893743914552034,1.051737656146288,9.81929590344429,0.001532831779516894,-0.0022471269539843736,0.002472625437948979
1747503144.736401542,-0.0457553852442652,1.0545489243417978,9.799796608686448,0.0006593362680655707,-0.0032350988610116735,0.0023039141828924596
1747503144.746439251,-0.07134441806003451,1.0614003992825747,9.813739879131317,0.000440869381122189,-0.003029710624243393,0.0020988499987333827
1747503144.756373127,-0.06038372552487999,1.060432392731309,9.832246316671371,0.0007679848531438158,-0.002811492140789871,0.0021122794566638924
1747503144.766420753,-0.05521861498709768,1.0635227923840285,9.781839809417725,0.0008779360854984217,-0.003652263020049545,0.0026048563274835923
1747503144.776433671,-0.06612432999070735,1.064661391451955,9.836167459487916,0.0006586446654162744,-0.0033504113955431774,0.002188437281387427
1747503144.786442797,-0.06801032199058682,1.0665477032214403,9.834174728393554,0.0008753836510522977,-0.002830285371603369,0.0017855684977458285
1747503144.796432673,-0.04801331040915102,1.0665561085939408,9.800370805263519,0.0008759684281725167,-0.003356585820097823,0.002079735316053934
1747503144.806534257,-0.05932490897364915,1.0777875865995885,9.804389011859895,0.00033246012944171204,-0.003023482364303431,0.0022076731587024204
1747503144.816590342,-0.05378175310324878,1.0860804732888938,9.845080955028534,-0.00010319742722198918,-0.0030236961453987475,0.002207188640234567
1747503144.826654593,-0.053319178959354764,1.077646887972951,9.819677141904831,0.0004420923481271657,-0.0037615059399794606,0.002597838741966638
1747503144.836589344,-0.05759236983954907,1.073643007054925,9.784292131662369,0.0004400184504394153,-0.004107438602161794,0.0022514072572285652
1747503144.846525845,-0.04843899227678776,1.07579061627388,9.804874915480614,0.00033208802810092775,-0.0032415396016753266,0.002194606764529894
1747503144.856533804,-0.047213498102501035,1.0951462887972594,9.846970775127412,0.0007621613988910317,-0.004484623875855128,0.0013606191438201658
1747503144.866503847,-0.05344331808853895,1.0920567662268879,9.792577636241914,0.0017483209129645727,-0.00419698193225488,0.0025731597690994705
1747503144.876516473,-0.06943349773529918,1.0762684799730777,9.794762156009675,0.0021833398246134473,-0.0039912748443639,0.002368822752753661
1747503144.886482140,-0.056719508450478316,1.0714416034519674,9.79817868411541,0.0009885788554837424,-0.0023501405736770253,0.002574430492252413
1747503144.896489808,-0.029909869367256762,1.0843181955814363,9.780465713739396,0.00022405089401588034,-0.003017254104363468,0.0023164960585971327
1747503144.906482892,-0.056329499166458845,1.0935131614655256,9.83539796590805,0.00022035481523396654,-0.0040236455153989485,0.0018219220770341986
1747503144.916542185,-0.05884497134014965,1.0855644565075637,9.80087892830372,0.0004452567049512019,-0.0039355892902973744,0.0033473810095059117
1747503144.926530894,-0.05956046496983618,1.0902245412021876,9.795124683380127,0.001529720900475978,-0.0037798175131426824,0.0022722178845826627
1747503144.936481395,-0.061483860877342526,1.0751849909126758,9.811100445985794,0.0010971742553624836,-0.00224734021493104,0.0024721406594068007
1747503144.946487896,-0.039161968943662945,1.0802258755266667,9.795673152208328,-9.960775947569674e-05,-0.002658914856571648,0.002880451888414761
1747503144.956543689,-0.04329659908544273,1.110072256922722,9.829104022979736,0.0005457419795821017,-0.0051074946026353285,0.0018658984347942704
1747503144.966462982,-0.07309284974355251,1.097709561958909,9.820749521255493,0.001855665290320506,-0.0045365830849901445,0.0023357940936758496
1747503144.976398899,-0.058497486845590176,1.0912255845218897,9.795242212414742,0.0007696600568910299,-0.003857809902156199,0.0028095569277360355
1747503144.986440692,-0.07393711916171014,1.0841860485076904,9.810936723947526,0.0009875945391814302,-0.0032160936696231353,0.0026311100503898645
1747503144.996435235,-0.06669418683741242,1.087590516731143,9.853431948423387,0.00022538036145702768,-0.003107437737445203,0.0026367950150644782
1747503145.006444944,-0.053335555731318894,1.09368638522923,9.803654601573944,0.00011170633581091603,-0.0044472527557694016,0.002013556673225603
1747503145.016420237,-0.07881267375312746,1.1186358696967365,9.802698581814766,0.002730038422582227,-0.0033242695045967424,0.0026265147971378518
1747503145.026434321,-0.05510987961664796,1.0809910567849874,9.825759415626527,0.0029466707127263356,-0.003445755943534242,0.0024023359302993265
1747503145.036572364,-0.07137277705594898,1.0769820595532655,9.824623886346817,-0.0004354979360466078,-0.005120540450936164,0.0016469202742368301
1747503145.048957407,-0.08699396084994078,1.0995338932424785,9.81709033370018,0.00011883264052312747,-0.002010914968267353,0.0028109485854501967
1747503145.056482699,-0.04527814737986773,1.1106437491625547,9.804089049696923,0.0021880739575551185,-0.0017981254063152822,0.002717372022721863
1747503145.066516617,-0.05565603696741164,1.0721564255654812,9.828205890655518,0.002944224713697801,-0.0040097487039060485,0.002042838311463052
1747503145.076434743,-0.08028226177208125,1.0625118087977172,9.815304594039917,0.0010915904596003742,-0.005518216460563596,0.0022761481277851314
1747503145.086447369,-0.08642826100811363,1.0765476114302874,9.798825970888139,0.0006582457764199943,-0.002715081808214125,0.0019008036601655847
1747503145.096392037,-0.047140197772532706,1.0806229745596647,9.802237236499787,0.0014212315459033384,-0.0032410074896059614,0.002195818450811015
1747503145.106351579,-0.08059580043889583,1.0732899083197118,9.846839797496797,0.002402125270095912,-0.00429941064479015,0.0026762977043195695
1747503145.116372372,-0.08994831223972143,1.0518437100201845,9.820132055282594,0.0017482941253090768,-0.0033435951075539306,0.0022985925420501547
1747503145.126424081,-0.061005389615893364,1.0509981295466424,9.771810665130616,-0.00021181935468190098,-0.002273108379072158,0.0020349108559193753
1747503145.136393249,-0.05651203736197204,1.074443198516965,9.833277765512467,-0.00010545765190910227,-0.0034786576863413544,0.0018542239584102306
1747503145.146400917,-0.07950837364420295,1.0749203313142062,9.823055663108827,0.000984775983682042,-0.003998144967738464,0.002258546297455389
1747503145.156518834,-0.05932172955013812,1.0620060246437788,9.772545075416565,0.0014215245196306796,-0.0024903669281913557,0.0020236616010570426
1747503145.166457960,-0.05560714876279235,1.05700380474329,9.807374015450478,0.0009878875129087715,-0.0024654520679112286,0.00245895359074738
1747503145.176404670,-0.06503616772592068,1.0822737166285514,9.830269957780839,0.0006600542032402937,-0.001945594050563542,0.002055479094002384
1747503145.186443837,-0.05577650331426412,1.0704985206574202,9.79917388021946,0.00175129837387666,-0.0024525154508269788,0.002677689362033731
1747503145.196424672,-0.04744687509723008,1.0595515827834607,9.79999307513237,0.001531582252421456,-0.002689525344573722,0.0023375485550736694
1747503145.206599464,-0.06297326090745628,1.067436480000615,9.797598640322686,-0.0007554339913024231,-0.002581616605932098,0.002341538095222284
1747503145.216457215,-0.04091870550066233,1.1000094180554152,9.827653913497926,-0.00021224473875006123,-0.0028119732782914968,0.0021111894851669664
1747503145.226452633,-0.03516247115330771,1.0801703269779683,9.794894887804986,0.001966521451289656,-0.003978817544261,0.002586468552543086
1747503145.236435217,-0.06665850054938346,1.0726958312094212,9.784731842279434,0.002184856057929381,-0.003972428038239411,0.0026956547762701072
1747503145.246439968,-0.047835180466063325,1.069300645440817,9.813510668277742,0.00011279654300019923,-0.002939689277540585,0.0017781877184337284
1747503145.256438011,-0.035145368047524245,1.0965240389853717,9.801835532784462,0.0006554270908834436,-0.0034971331063294543,0.001528239907231109
1747503145.266418554,-0.04972018118016422,1.1034368366003038,9.817386202812195,0.002618360946894086,-0.00378556515572967,0.0021644849561848764
1747503145.276409596,-0.042913684118539096,1.0681592689454555,9.793765205740929,0.0026177211640540862,-0.003580073149305634,0.0019596632913340514
1747503145.286431556,-0.05101165296044201,1.0664689119905233,9.816160626411438,0.0005503686368088827,-0.003555957757501181,0.0023931381417141954
1747503145.296442140,-0.04144432907458395,1.0916036801040172,9.820153105258942,-0.00010412807068543765,-0.003568842879869041,0.0021745234350262262
1747503145.306416849,-0.05229357733391225,1.0945446103066208,9.783809151649475,0.0015279659189295076,-0.004228498779280286,0.0020281972972885838
1747503145.316401184,-0.07130654363427312,1.0780398939549924,9.825685740709305,0.0028363203963197056,-0.003997238088566482,0.0022606053058880217
1747503145.326529601,-0.06580177382100375,1.069979580268264,9.824525653123857,0.0010946741608743066,-0.0031321393367786635,0.0022019881940278066
1747503145.336515977,-0.05680161158088595,1.08613689891994,9.811001043319703,-0.0010847562264826884,-0.0029339926095213373,0.0018857993221588077
1747503145.346487187,-0.06578857190441341,1.1025442591309549,9.81844220995903,0.0002224821094316102,-0.0033569054514434975,0.002079008538352154
1747503145.356528396,-0.06822047457564623,1.0954526828974487,9.833853131532669,0.0016369599477302037,-0.004761028267937679,0.0022135412157019765
1747503145.366501647,-0.07093853449914604,1.0841300614178182,9.810099402666092,0.001857660450506301,-0.0036580650181705,0.0024970024645245862
1747503145.376439898,-0.06112782482989133,1.080817248299718,9.822419486045838,0.0002266036698095562,-0.0018116494012630033,0.0024973038906674965
1747503145.386444357,-0.05653647232800722,1.090225272104144,9.830205638408662,5.158543762942524e-06,-0.003350729466442901,0.0021877103736484844
1747503145.396435983,-0.07107074095867574,1.098282516002655,9.795954988002778,0.001639352891596397,-0.004517842129116013,0.0026623837279212063
1747503145.406564401,-0.08570836826227606,1.0718015726655723,9.820532004833222,0.002510057675501129,-0.0031377265135070008,0.0020946181993508413
1747503145.416459777,-0.06829109340906143,1.0780694223940372,9.843809770345688,0.0010965359029312728,-0.002041845867838077,0.0022673188645188132
1747503145.426446445,-0.04933653987944126,1.0775057508051396,9.799940450191498,0.0006569428040507269,-0.003478286820353615,0.0018550720607847177
1747503145.436439529,-0.07536468488629908,1.077581472247839,9.78253913640976,0.0017469383578517933,-0.004427604140500311,0.00234220570601508
1747503145.446450405,-0.09555989423766732,1.0741131962835788,9.843064835071564,0.002078041842085374,-0.002452354984968328,0.0026780526858660395
1747503145.456514364,-0.0440763664059341,1.0493747963011266,9.796597012281419,0.001206168154126017,-0.0027798697035884322,0.002657484447783031
1747503145.466450574,-0.059527483019046486,1.07441367007792,9.815153735876084,0.00098389914309462,-0.00422248326013834,0.002136535938789768
1747503145.476411283,-0.08045112753286958,1.075720303505659,9.837012966871262,0.0016403638004984613,-0.002477696107067463,0.0022417920493514832
1747503145.486436742,-0.03413345484528691,1.0647322158515453,9.769113929271699,0.0012017275150603376,-0.004222378190110957,0.002136778198023695
1747503145.496584993,-0.07197293435689062,1.0674041741341354,9.814056798219681,0.0006565175175104387,-0.004017150419201328,0.0019313505599951465
1747503145.506504869,-0.0765388514706865,1.0744641754031181,9.815209869146347,0.0007680381683804824,-0.0024906862994627053,0.0020229346933181
1747503145.516471120,-0.0431118590477854,1.0811106323450805,9.793510851860047,0.0012051582855212536,-0.002792432853941691,0.002439596258722517
1747503145.526514663,-0.052703636172227564,1.07175786472857,9.786449169516564,0.0015289761776457588,-0.004215935368852702,0.0022460856163862603
1747503145.536599331,-0.08454177564941347,1.074375005364418,9.83072370171547,0.0005519109425759181,-0.0023629182853485762,0.0023560577847240452
1747503145.546481582,-0.02751535004703328,1.074483982846141,9.783016853928567,0.0005492252850567088,-0.003356745765807823,0.0020793718621844627
1747503145.556488666,-0.05489092879928649,1.0847369293123483,9.804042856693268,0.00109206860624726,-0.004658549100983319,0.00211052486522891
1747503145.566438000,-0.07893729253672063,1.084098047912121,9.826614278554917,0.00087836137203871,-0.0031133994212018327,0.0025285780883474887
1747503145.576417668,-0.03203143335180357,1.082230081781745,9.796185368299485,0.000769739639634542,-0.002362811394800918,0.0023562999139208093
1747503145.586426211,-0.03987282134592533,1.084656749367714,9.820830212831497,0.0012019141183886707,-0.004113347490830407,0.00214331100499847
1747503145.596402378,-0.05011802025139332,1.080964817404747,9.80807743549347,0.0012024722378905564,-0.0037862603344009376,0.0021629104662200973
1747503145.606515338,-0.055474220537580554,1.0752444863319397,9.812434780597687,8.243031863300368e-06,-0.0029922318333870323,0.002752030047447072
1747503145.616597672,-0.04362038408406079,1.0890586064010859,9.792948934435845,0.0003296415414330333,-0.0038055331422701096,0.0018351092757307819
1747503145.626453090,-0.057909791423007846,1.1006320003420116,9.802807924747468,0.0010966953284926222,-0.0031070106954032197,0.002637764052000185
1747503145.636433341,-0.04940227080602199,1.0925728560984136,9.801810974478721,0.002404810797577959,-0.0033055831643309034,0.0029529837568963145
1747503145.646450633,-0.05384870829060674,1.0690408097952604,9.826128959655762,0.0022916425758577534,-0.004639115307106846,0.002438689119476209
1747503145.656491551,-0.06843990504741669,1.075581870675087,9.85263321876526,-0.00032014882856312195,-0.002799461102505978,0.0023289562195176108
1747503145.666517885,-0.04007148963399232,1.097894553244114,9.790666766166687,0.0003302797638270816,-0.0040110267091400965,0.002039930940581607
1747503145.676487636,-0.08026858476921916,1.09479026645422,9.839133167266846,0.0026148489032065438,-0.004682930548822455,0.0016764443017453683
1747503145.686516304,-0.08444744361564517,1.0599943631887436,9.805949048995972,0.002075782056273685,-0.0029073173061339107,0.002325088134078866
1747503145.696539138,-0.05467979863286019,1.0716706681251527,9.837209433317184,-0.0009752568732681227,-0.003460239742779125,0.0021800872050652953
1747503145.706472723,-0.08611302299425007,1.0975900594890118,9.818023549318314,3.2972134056651133e-06,-0.004441022415234837,0.0021223795731203157
1747503145.716518015,-0.07500401217956096,1.0829845918715,9.82477240562439,0.0019671859411905497,-0.0030101189652515224,0.002427378487073128
1747503145.726539392,-0.05982120510656387,1.0696389068663121,9.818849176168442,0.0016369332901118704,-0.003907640663013754,0.0019389738586154982
1747503145.736477059,-0.08744944981299341,1.0759750228375198,9.823670790195466,0.00022086018841177205,-0.004017361599553393,0.0019308659114901305
1747503145.746522644,-0.07985560689121485,1.0855273266881704,9.816668164730073,-0.00010476632558877658,-0.003363346192107151,0.0019697011199895885
1747503145.756519228,-0.05377857367973775,1.0867102915048599,9.78626264333725,0.0014201683620619083,-0.0035743770014350367,0.002067274634984805
1747503145.766498021,-0.08522379853762686,1.0793492317199707,9.847933226823807,0.0026168436732808514,-0.0038044135223001103,0.001837653062705593
1747503145.776519980,-0.05991674769669771,1.0683240142464638,9.795824010372163,0.0009869302443362804,-0.002157210417234622,0.002151720378266748
1747503145.786447439,-0.035501643922179936,1.0746235851198436,9.802532520890237,0.001202339599984703,-0.003574483891982695,0.0020670323757508787
1747503145.796394732,-0.08318922330625356,1.080093728452921,9.826144162416458,0.0015294813720224659,-0.004209653273527423,0.0023550297109165173
1747503145.806474441,-0.06932133169379086,1.0778119987249375,9.821791495084764,0.001314497823062982,-0.002253515679782986,0.0023634386940733078
1747503145.816458192,-0.018834089466836304,1.069255402609706,9.77920329988003,0.0006618623049676866,-0.003203688384385275,0.00284863439546942
1747503145.826439902,-0.06857260029762983,1.073609239384532,9.835553501844407,-0.00021641948432751126,-0.004678033349278881,0.0017822388961974164
1747503145.836517861,-0.06560310096479953,1.0895645367354154,9.800737425684929,0.000879372020866449,-0.003100834710402623,0.002746466017333678
1747503145.846452029,-0.03127513483632356,1.0785712596774102,9.767087284326553,0.002622878697997188,-0.0028756420738444556,0.0028704145799078743
1747503145.856462321,-0.045618300014175474,1.0728468355536462,9.805857247710229,0.002404493506901211,-0.0032028340402269827,0.0028505722092665078
1747503145.866428864,-0.05365420157555491,1.0721571564674377,9.828314648866654,0.0004411884598099225,-0.003132457407678387,0.002201261026214539
1747503145.876430115,-0.05254211140796543,1.0742738485336305,9.79558310508728,0.0009853080307328263,-0.0028176686459391183,0.0020035780114790497
1747503145.886580699,-0.0405225931853056,1.074249728769064,9.813206613063812,0.001421550136951712,-0.0033437560935612315,0.0022982294782921712
1747503145.896535284,-0.06369632394053042,1.0715527736395598,9.834707994461061,0.0008758618627177648,-0.003998197502752155,0.0022584251028198443
1747503145.906453993,-0.06379211777821184,1.0703810647130012,9.796729159355165,0.0006586446654162744,-0.0033504113955431774,0.002188437281387427
1747503145.916520577,-0.04063060222193599,1.0727632203698159,9.787176563143731,0.000767054047133914,-0.0033566388752601646,0.0020796141214183893
1747503145.926488870,-0.06671152748633176,1.071380061507225,9.831535295248033,0.0006596557043555013,-0.0033378448642236913,0.002406325210373616
1747503145.936433538,-0.06437076828908175,1.0770707910507917,9.809054505228996,0.0008780958361526777,-0.0026898454960680466,0.0023368219074090518
1747503145.946450247,-0.044390128911472856,1.0767073135077954,9.7862012475729,0.0021850950662342427,-0.003542594098374947,0.0026128429499362527
1747503145.956434290,-0.08548893322236836,1.0588496245443821,9.855701837539673,0.001199573839573331,-0.004035729348770858,0.001605123989507773
1747503145.966406374,-0.059225442353636026,1.079302892535925,9.81345921278,-0.0003234195232768755,-0.0032669878743964453,0.001758103738744248
1747503145.976423375,-0.048157727499492466,1.0968052169680595,9.771203139424324,0.0010920155510849184,-0.002951772330689519,0.0015613897609444655
1747503145.986446209,-0.07118656150996686,1.0799840931594373,9.824807488918305,0.001747549402478858,-0.00377971192296665,0.002272460013779427
1747503145.996432585,-0.07792416192591191,1.068001832664013,9.841691908836365,0.0010936109770328765,-0.0034655083284590884,0.00207344450823876
1747503146.006440253,-0.05860574256163091,1.0734710258245468,9.781235792040825,-0.0006487263409131683,-0.002715721330979799,0.0018993502347991874
1747503146.016548837,-0.07037576283328235,1.0931933918595313,9.811657100915909,-0.0002119256925716184,-0.00291471954157784,0.002213600772722448
1747503146.026549213,-0.07890380809083582,1.084412335753441,9.849578633308411,0.0016390067326695517,-0.0035617082609057456,0.002285405473390734
1747503146.036495339,-0.07695281149819494,1.0678883235901595,9.804829307198524,0.0007678518901450557,-0.004627297009620969,0.0026548813638620737
1747503146.046500090,-0.08121280959807337,1.0800377413630486,9.790338152647019,-0.00042919614009119403,-0.0025877379753244025,0.0022329573245243356
1747503146.056626175,-0.0642867054278031,1.0940528594702483,9.861922105550766,0.00011518972255874971,-0.002696501058124318,0.002227029970578633
1747503146.066562092,-0.06221059212461114,1.0953689946234226,9.850141135454178,0.0013096319624755954,-0.0042348875050788985,0.0019190110735615624
1747503146.076564802,-0.05510670019313693,1.0816209480911494,9.766940519213676,0.0018568626725137408,-0.004414987934984711,0.002560214829636814
1747503146.086550303,-0.08021995238028468,1.063369376063347,9.83032024383545,0.00011404637080657579,-0.0024972885462823096,0.0019132639511232254
1747503146.096483595,-0.055080789718776946,1.081391225606203,9.83276204109192,-0.0010831883033946205,-0.0025943391818467063,0.0021232861922179736
1747503146.106346596,-0.047598870727233594,1.1056682071834802,9.786713463664055,0.0006566772031461134,-0.005082314206469169,0.002301795877513681
1747503146.116444389,-0.05958930818829686,1.0896811886876823,9.803071634173394,0.0025120779328593064,-0.003112598652354532,0.002530394707509032
1747503146.126427265,-0.06761298998259008,1.072894855812192,9.840551701784134,0.0013157478703070705,-0.0018111162488963371,0.0024985150567999673
1747503146.136396141,-0.034281046791002155,1.0779401989281179,9.825736026763916,0.000552362951753121,-0.0026774415112018127,0.0025543467726372574
1747503146.146405267,-0.031216233274899426,1.0953533533215523,9.798990862369537,0.000983659614641108,-0.004652318760448754,0.00221934763508646
1747503146.156445018,-0.08253140240907669,1.0907583189010621,9.820816179513931,0.0015296677152764739,-0.0020730426934063213,0.0017230830403725435
1747503146.166421769,-0.028151915401685983,1.080230260938406,9.796284186244012,0.0012050515250107577,-0.003434044536596023,0.0026182857854141024
1747503146.176365853,-0.04162662515882403,1.0888019136339426,9.806010444760323,0.0010900750715259972,-0.005537061966316459,0.0019493157141571976
1747503146.186442063,-0.09084856417961419,1.08546541929245,9.849975074529649,0.002619102678869565,-0.0033494517212831784,0.002190617744529929
1747503146.196433689,-0.05750049089547247,1.0746143026649952,9.83622593164444,0.0024028711632605943,-0.0018357114778307895,0.0020639502349228973
1747503146.206521565,-0.015516607712488622,1.0741740073263646,9.795632806420327,0.0006572093152154788,-0.0039018373645211732,0.002046827461500179
1747503146.216469732,-0.0775229058880359,1.0909605594724416,9.807139542102814,0.0012002123220417045,-0.0042412229156408455,0.0018099457843957609
1747503146.226447650,-0.05561889801174402,1.0728140911459922,9.82226161122322,0.0013158533304459402,-0.0011695057365764682,0.002319825790182707
1747503146.236499943,-0.022696495174895973,1.0876088623702527,9.786044542193414,0.000875808742536842,-0.004319002823930671,0.0023477699962027995
1747503146.246493610,-0.07198025251273066,1.0995398135483265,9.817924146652222,0.0008721128263013815,-0.0053253937148175015,0.0018531957545655402
1747503146.256536278,-0.08441276231780649,1.0924154929071666,9.849738847017289,0.0009866377257390082,-0.0029078509786492276,0.0023238769679463952
1747503146.266508362,-0.03677551466971636,1.0865454731136561,9.784204423427582,0.0019691003482983694,-0.0036266022666047357,0.0030418441318114165
1747503146.276502030,-0.06676211960613727,1.0711235149204732,9.774660013318062,0.002400929448348628,-0.004421003454126657,0.002451876448209955
1747503146.286456906,-0.0785074582323432,1.0585093896836042,9.850083832740784,0.0012059559334766513,-0.0020355101972018056,0.0023763836335359643
1747503146.296739615,-0.031192049556411805,1.0797145365178586,9.787106981277466,0.0008770588547995118,-0.0038766028728953717,0.002482846098855134
1747503146.306497616,-0.05853927159681917,1.0907970567047596,9.77027752518654,0.001745714708151713,-0.005723392216608185,0.0024816965703377365
1747503146.316439367,-0.09632498413324357,1.077943999618292,9.840252324342728,0.0019670803510145173,-0.0036517293475342287,0.002606067493616063
1747503146.326602202,-0.05831177836284042,1.0616913713514806,9.819467811584474,0.001206540840634033,-0.0025618103856219344,0.0026705503218069073
1747503146.336556203,-0.0625556372338906,1.0743557826429606,9.779071152806283,0.000546167461178134,-0.004568630483638965,0.001789619805546679
1747503146.346541120,-0.07956653516739608,1.074119993671775,9.80903813302517,0.0013129555823145277,-0.003446555151935591,0.002400519051063458
1747503146.356533621,-0.08195274733006955,1.0676572123914958,9.835461115837097,0.0016398052908850878,-0.0028047835235712588,0.0022221928482041814
1747503146.366494622,-0.0686397975962609,1.0567128326743842,9.801645498275757,0.0004410821869387864,-0.0037740677899610934,0.002379950552906124
1747503146.376426457,-0.07617573481053114,1.0645152110606433,9.780734685659409,0.0006586450555277622,-0.003350409575022901,0.002188437021313102
1747503146.386427999,-0.08471967718563975,1.0714872848242523,9.832541016340256,0.00098605249348872,-0.002381551310377749,0.002029710409712615
1747503146.396394834,-0.05060625362209976,1.0730734882503747,9.809584847688676,0.000983819365295364,-0.003689901236467256,0.0019513132150119196
1747503146.406439251,-0.07785035910084843,1.0696035312116146,9.799891918301583,0.0009840587637117136,-0.0032600662563054914,0.001868501388678065
1747503146.416528877,-0.06673644667491317,1.0710369761288168,9.82552786588669,0.0003306787828605244,-0.0026187742049968337,0.0016890848242103746
1747503146.426661962,-0.050978177650831645,1.0831943607330323,9.812148267030716,0.00044193311762156015,-0.0026963400721170174,0.0022273932944109416
1747503146.436549463,-0.053679372011683886,1.0719573278725147,9.80735413491726,0.0007654854088414519,-0.003696289962265869,0.0018421268612477358
1747503146.446632381,-0.06871775285806507,1.0714652115851642,9.815469485521318,0.0009845107078703351,-0.003574590262381703,0.0020667902465541146
1747503146.456506173,-0.05225205296650529,1.0787050878256559,9.820796298980714,0.0005495176736168183,-0.0026061052043932172,0.0019072155325791408
1747503146.466510341,-0.03861165915615857,1.0891177363693714,9.794226551055909,0.0008778035126111494,-0.0034404852772596767,0.0025089783670515366
1747503146.476471925,-0.05814169290941209,1.0805897185206415,9.81858137369156,0.001422056631700045,-0.003337471657567025,0.0024071733127481033
1747503146.486541135,-0.0557760190917179,1.0702122263610363,9.829084142446519,0.0015300656289940345,-0.002708373190995512,0.002010716921668711
1747503146.496517886,-0.046498991190455856,1.074647485613823,9.819880625009537,0.0004414541582424081,-0.003556011592886498,0.002393017207152976
1747503146.506477137,-0.04847173668444157,1.0914582306146623,9.799801871180534,0.00011447181176599467,-0.003986005218386637,0.002475464929431546
1747503146.516491221,-0.0698337624873966,1.085559705644846,9.835182788372041,0.0008802494466211028,-0.002876494077333821,0.002868476245962136
1747503146.526488097,-0.048327812952920796,1.061495489627123,9.799062198400497,0.0008788133812159129,-0.0034279229071293937,0.002726866816186376
1747503146.536431890,-0.048017462845891715,1.0664988789707424,9.799370931386948,0.000657793897279954,-0.004428138853312928,0.00234099453988261
1747503146.546428474,-0.06738182396627963,1.07695523545146,9.806886942386628,5.105362119142165e-06,-0.0036715355678443922,0.0022770552670314395
1747503146.556425350,-0.07574810234829783,1.0869581403583288,9.841918780803681,0.0004435817287690223,-0.002889270488633746,0.0026501032783594436
1747503146.566388684,-0.061471887789666654,1.0756427548080683,9.784194483160974,0.0002231734520065812,-0.003241593957209294,0.002194485569894349
1747503146.576391685,-0.07089747608173638,1.084988067224622,9.790201327800752,-0.0008653058359692607,-0.0022734277503435076,0.0020341840782175952
1747503146.586412770,-0.04892625263426453,1.1001493126899005,9.812254686355592,-0.00010364946890848273,-0.002709172139322536,0.002008899782358517
1747503146.596488687,-0.055271399812772876,1.0948865262418985,9.789651104807854,0.00229275907493585,-0.003984940474099255,0.002477887781845138
1747503146.606469230,-0.0686471385927871,1.0888484720885754,9.805516939759254,0.0024006353042868235,-0.003144064524812199,0.001985553690408015
1747503146.616438981,-0.0596675009932369,1.0881655173003675,9.828914573192597,0.001094541913079941,-0.00292036133391447,0.0021061097134471005
1747503146.626457440,-0.055965889147482815,1.0996892829984426,9.80385574579239,0.00011130755246983046,-0.003811921347920072,0.0017259227919294356
1747503146.636443525,-0.06890762748196722,1.1009423413127661,9.790242843031884,0.0014217375205030209,-0.003234724353983381,0.0023047620251926216
1747503146.646440984,-0.05668479517567903,1.1038626600801946,9.84196321964264,0.002292973636254143,-0.002701715548344639,0.0021205080782761543
1747503146.656495902,-0.0597425280790776,1.0872796641290188,9.795941539406776,0.0010944885978432742,-0.0032411674353159613,0.002195454866904381
1747503146.666603903,-0.05254991835448891,1.0902844751626253,9.796515151262284,0.0006583789344744983,-0.0029268574704093917,0.0019966813605233153
1747503146.676530195,-0.053686945983208716,1.0878248438984157,9.823240435123443,0.0005496509617084848,-0.002817880606514159,0.0020030932329368712
1747503146.686516863,-0.047106475783512,1.0972053126990795,9.813179715871811,0.001312583545992325,-0.0036646129094561374,0.0023874526568909314
1747503146.696469406,-0.04931968345306814,1.0940025734156371,9.791924502253533,0.0018570483655819356,-0.004305959576373088,0.0025667478966859146
1747503146.706469198,-0.06860558224841953,1.0894201105087995,9.81552444934845,0.001422987307672784,-0.0027923254432453823,0.0024398386479936064
1747503146.716524116,-0.06094528206624091,1.083475831076503,9.851515231132508,0.0017505541711950914,-0.0028886317460910475,0.0026515568337630033
1747503146.726502325,-0.0449272367823869,1.0839687513560057,9.80853995025158,0.0017474967374280044,-0.004100516984070841,0.002361804907162382
1747503146.736479368,-0.07299411859363318,1.0832428195327521,9.811928411722183,0.0014180943993555766,-0.003920310963988996,0.001720843280283895
1747503146.746503369,-0.05329034030903131,1.0781901673972607,9.81172843694687,0.0016420659869569151,-0.002349820162108375,0.00257515713991703
1747503146.756455620,-0.04727656123694033,1.078306892439723,9.814064984321595,0.0015277794456383372,-0.00433752869833786,0.0020216643602766456
1747503146.766418663,-0.07972780868411064,1.0714608992636205,9.8148590362072,0.001417589074941707,-0.003926592799239951,0.0016118993157908004
1747503146.776355164,-0.052570698810741306,1.0735873123258353,9.818484309911728,0.0017480276791629063,-0.002920042742866096,0.0021068367512232056
1747503146.786408915,-0.04396395368501544,1.0671865115314723,9.811604475975036,0.0013066007962153538,-0.004272579816956252,0.0012653467664543452
1747503146.796395291,-0.06314601415302605,1.0804446344822645,9.83325905442238,0.0010928934319696414,-0.004755011708498431,0.0023218795971288357
1747503146.806434750,-0.06839593672659249,1.060801498219371,9.785936953425407,0.0015310240028824078,-0.003016613281226168,0.0023179493539263675
1747503146.816458168,-0.07088477666024119,1.0686050460487604,9.835132502317428,0.0012063550175286754,-0.0026708390043078825,0.0026640172547578067
1747503146.826443960,-0.045916434922255576,1.0681580995023252,9.7935991448164,0.0015304648430832211,-0.0033437022581759143,0.0022983504128533906
1747503146.836436170,-0.06386299242731185,1.0531409879028797,9.791729205250741,0.001965670228023266,-0.0030289655113016865,0.0021005459434080315
1747503146.846426629,-0.07754735455848277,1.073919945806265,9.85801967382431,0.0010954190137416882,-0.002696021741142969,0.002228120462224209
1747503146.856453547,-0.07105876330286265,1.0659175926446915,9.822998360395433,0.0004410553342647092,-0.0029206822656317705,0.0021053833258568083
1747503146.866429131,-0.05812996650114656,1.0647793590277435,9.803696116805076,0.001311466786839903,-0.004318788522686704,0.0023482542545963277
1747503146.876425132,-0.07678323310799898,1.0706617310643196,9.801011075377465,0.0017477888008952073,-0.00334987720287921,0.0021896484475198976
1747503146.886444758,-0.06620301158633084,1.0634320143610239,9.8320977973938,0.0007679316679443117,-0.003132297461968387,0.0022016243500468475
1747503146.896430259,-0.04217766584828496,1.0639282236993313,9.78957041323185,0.0004400714080738848,-0.0037866348414292298,0.0021620628839942604
1747503146.906371135,-0.06253902291879058,1.0745845549553634,9.783075326085092,0.0008755434667251349,-0.003895448378648235,0.0021560139453015255
1747503146.916390469,-0.0773034708481282,1.0780086844414474,9.842308205366136,0.0010972542282174835,-0.002779921978527798,0.0026573629930731614
1747503146.926422054,-0.04609799096826464,1.081338162124157,9.797348964214326,0.0008774841413398001,-0.003337739274047659,0.0024065678597190304
1747503146.936420388,-0.06195548450108618,1.083933668062091,9.789638240933419,0.000548347859302055,-0.003581085618653649,0.0019573616335560044
1747503146.946393056,-0.07294427564833314,1.0839289171993733,9.82394327044487,0.0009897220121801724,-0.002549353345593359,0.0028881966417449827
1747503146.956440682,-0.052607586518861355,1.0891977701336146,9.812407883405687,0.0013141527044334374,-0.0033249607821531323,0.0026249397870244224
1747503146.966429391,-0.05539187529589981,1.0768173142522575,9.787592300176621,0.0009866643183387602,-0.003761238843647477,0.0025984444550700364
1747503146.976415184,-0.0620666729612276,1.0818175607174636,9.822427672147752,0.0004423849967616005,-0.003010864078193229,0.002425682282324154
1747503146.986447935,-0.04500177507754415,1.0827966038882733,9.805474255084992,0.000659469296082912,-0.00344687452320694,0.0023997921433245154
1747503146.996413311,-0.058927563261240726,1.0841347391903402,9.810764815807342,0.0016378380886892519,-0.004536686074422925,0.0023355514443304352
1747503147.006575270,-0.06992125145159662,1.068091002702713,9.826179245710373,0.0014221092967508986,-0.00301666737668581,0.002317828419365148
1747503147.016505646,-0.057215306656435136,1.0794179365038872,9.81557356595993,0.0010932922559473402,-0.003362760504726794,0.0019710334807576035
1747503147.026548022,-0.0441000659018755,1.0811386258900166,9.811412687301637,0.0007661766863978416,-0.0035809787281059907,0.0019576040228270935
1747503147.036465856,-0.05939527655951679,1.0766725956648588,9.802324360013008,0.000442198881072627,-0.0031198932170278275,0.002419149215275053
1747503147.046405274,-0.05524231905117631,1.078875387981534,9.823629859685898,0.0009862390968170532,-0.002272521391320175,0.0020362432166873903
1747503147.056449692,-0.038735551605932415,1.0869732700288297,9.809058598279954,0.0008768459189457518,-0.003132244926954696,0.0022017458047567176
1747503147.066505776,-0.04622554249595851,1.095261478945613,9.814114100933075,0.0006584853698920875,-0.004312827099004399,0.002456471441387642
1747503147.076435277,-0.06881232243496925,1.0859890374541283,9.825289299488068,0.0009843776148344124,-0.0033628143401121108,0.001970912546196384
1747503147.086519070,-0.051892092889174825,1.0845376854389905,9.818161543607712,0.001093478339127023,-0.0032537311058178702,0.001977566547806704
1747503147.096573696,-0.05325270342640579,1.0949729188531638,9.808720044493676,0.001420061731588575,-0.004215988944163694,0.002245964421750716
1747503147.106406072,-0.07077261061873287,1.0865600180625916,9.835189805030824,0.001310376165157164,-0.0037987712098148303,0.0019451436018322903
1747503147.116480239,-0.06600409661885351,1.082873787134886,9.823267332315446,0.0007660437884176628,-0.003369202285687748,0.0018617260623950377
1747503147.126542157,-0.05008502459619194,1.0815653264522553,9.80113094329834,0.0007674262785118609,-0.0031385803375166424,0.0020926803855537534
1747503147.136443075,-0.05503999168518931,1.0823924881964921,9.797913220524789,0.0015296671951278234,-0.004100624654841474,0.0023615630380399433
1747503147.146395326,-0.07789972239173949,1.068631066158414,9.817787321805955,0.002075542787894498,-0.0033371520262213505,0.0024078999604127205
1747503147.156435952,-0.04991567918099463,1.0680704643577337,9.80933107852936,0.0012030840627405967,-0.0031383668164956507,0.002093164643947281
1747503147.166415036,-0.056331203081645076,1.0616926138848066,9.784664014577865,0.0006571558699416496,-0.004222643986071315,0.0021361724849202966
1747503147.176430287,-0.08017889396287502,1.0642273818701506,9.810422168970108,0.0013130887403690317,-0.003658330814130858,0.0024963964913468635
1747503147.186445247,-0.06578123090788722,1.0704086197167635,9.814572522640228,0.001642198884937094,-0.0025615966045266178,0.0026710348402747604
1747503147.196431331,-0.04458928599022329,1.057408797517419,9.780078043341637,0.0007685163150273682,-0.003658598950760142,0.002495791298392116
1747503147.206495582,-0.0767331297788769,1.0712045719474554,9.827979018688202,0.00022330641500534128,-0.0034533703996275367,0.002290363530326405
1747503147.216428875,-0.05501970001962036,1.0665532580763102,9.799981965422631,0.0005496508316713222,-0.002817880866588484,0.0020030932329368712
1747503147.226446751,-0.04568477097898722,1.0719321117550136,9.78984230875969,0.0004413478203526907,-0.004197623015466505,0.0025717064737702357
1747503147.236436918,-0.0822340075392276,1.0794652258604764,9.815188819169999,0.00011239770276785502,-0.004331940481312222,0.0021290338348049606
1747503147.246413086,-0.08089781826362014,1.0848120660334826,9.821557606458665,0.00033376319933885125,-0.00226027683201529,0.0022534046280461247
1747503147.256446420,-0.04292150476947427,1.0841699686646462,9.794699006080627,0.0013098176555437905,-0.004125859926690251,0.0019255444006849884
1747503147.266405088,-0.08869447734206916,1.0884403364360333,9.797395741939544,0.0016373058465827238,-0.0036895813450472563,0.001952039862676537
1747503147.276470506,-0.0903353887796402,1.093699541464448,9.854471583366395,0.0010982910145149055,-0.0015931648617747987,0.0025113393217757298
1747503147.286517257,-0.03753205529646948,1.0903474789112806,9.798347668647766,0.0007685432327200267,-0.002484404724286076,0.002131878787848357
1747503147.296479716,-0.05601133754476905,1.0989173043519258,9.807800862193108,0.0008727241960213525,-0.004677501237209516,0.0017834503224042123
1747503147.306450342,-0.07918923444114626,1.0961631926894189,9.828299446105957,0.001532087186723838,-0.0026832437693970926,0.0024464929096782513
1747503147.316444593,-0.03788760255323723,1.0844289272278549,9.816937136650086,0.0015322204748155043,-0.002895019691666685,0.002542370610035982
1747503147.326439136,-0.04838083075359464,1.0930022609978916,9.791918070316315,0.0008725912980411738,-0.004465724274642623,0.0016875723619721565
1747503147.336401595,-0.0707227631052956,1.0872458964586258,9.847202324867249,0.0006583789344744983,-0.0029268574704093917,0.0019966813605233153
1747503147.346427929,-0.047338386406190695,1.0771629577875137,9.828956673145294,0.0012050784427034163,-0.0022598508302706074,0.0022543736649818314
1747503147.356451930,-0.04370297143701464,1.087628962174058,9.802835406661034,0.0016358699762332777,-0.004241009654694179,0.0018104304329007767
1747503147.366363931,-0.06966074885800481,1.0724083674699068,9.81447662830353,0.0006581927212576528,-0.0030358873894669658,0.001990148423511377
1747503147.376381516,-0.04906725275795907,1.0816511343419553,9.820143749713898,0.0004431828072634515,-0.0022539414214533438,0.002362469657137601
1747503147.386518100,-0.04082046770956368,1.085828969925642,9.788926050066948,0.0011995205243366645,-0.004356535970321,0.0016944688828907284
1747503147.396482601,-0.07843683483079077,1.07589257709682,9.840127193927765,0.0018567031169152287,-0.0033498236275682188,0.0021897696421554424
1747503147.406597602,-0.053591887615621094,1.0730147237330676,9.843332637548448,0.0006603997119813259,-0.0029017293491825982,0.002432457738644344
1747503147.416511645,-0.038127824901603165,1.0806837125122548,9.80373880147934,-0.00010487262284188067,-0.004004959175133109,0.002148390906755499
1747503147.426439104,-0.05912184613756836,1.097286515906453,9.796557835936547,0.0007660171307993295,-0.004543395992013164,0.0022256380527901462
1747503147.436413522,-0.06644272915553302,1.0758118124306202,9.821833595037461,0.0026231203070453016,-0.0024458052731624147,0.0027876022334253694
1747503147.446410689,-0.04783956587780267,1.0693865995109082,9.797553032040597,0.0015289499101389134,-0.0033625472437801276,0.0019715181292626195
1747503147.456600065,-0.07476844704709948,1.0869590905308724,9.807061189413071,0.00043844945454475594,-0.004447092029836426,0.002013919997057912
1747503147.466524316,-0.07590962254442275,1.10085360981524,9.805810469985008,0.0015303328553631806,-0.0031319239952373955,0.002202472452421335
1747503147.476479484,-0.050300065088085835,1.0780198672413825,9.808893122076988,0.0029487453256184805,-0.0030998214608316315,0.0027487674150373995
1747503147.486746443,-0.06607129391748459,1.0495659271627664,9.816334873437881,0.001961549610414749,-0.004574219480887579,0.0016822504610555264
1747503147.496505319,-0.07129921634215862,1.0623155616223812,9.79484401702881,0.000549411238199229,-0.00324771688704755,0.002085905059270726
1747503147.506486154,-0.07184048121795059,1.0531085358560086,9.843156051635743,0.00153102361277092,-0.003016613801374818,0.0023179496140006924
1747503147.516527071,-0.05979700768366456,1.0540000900626183,9.80696412563324,0.0013100051691322617,-0.004016826886740775,0.0019320770776226012
1747503147.526498572,-0.07854142690077424,1.0584815423190594,9.797211554646493,0.0006565175175104387,-0.004017150419201328,0.0019313505599951465
1747503147.536421073,-0.08429007128812373,1.0624531173706055,9.814081356525422,-0.0003213453655147999,-0.002921054431991136,0.0021045350934451586
1747503147.546440408,-0.06919695502147079,1.0796701707690954,9.836869125366212,0.0004423318440713871,-0.0033316699195203954,0.0025150269156327836
1747503147.556425034,-0.05403541262727231,1.0827363044768572,9.76905955016613,0.000981585586916195,-0.004998252462928389,0.0018729162803855495
1747503147.566411410,-0.09499297927133739,1.0832337563484908,9.845621237754822,0.0008766600308218129,-0.003241273545640644,0.0021952124776332916
1747503147.576487911,-0.06256687028333545,1.089879774749279,9.823867256641389,0.0003338960323004487,-0.002472053794582183,0.0023492825884781805
1747503147.586579870,-0.04329806088935584,1.0781085987389087,9.793325495123863,0.0006571027497607268,-0.0045434490471755054,0.002225517118228927
1747503147.596646454,-0.08470281162299216,1.0879841074347496,9.824523314237595,0.0009882336068170355,-0.003421585676047171,0.002835931585203527
1747503147.606618247,-0.06932499990798534,1.0774685478955508,9.850702468156815,0.0013175019415934024,-0.0013624360230560342,0.002742535774131209
1747503147.616557081,-0.03588651633588597,1.0684478290379047,9.799158092737198,0.0009870899949905364,-0.0032223739444281383,0.0025221656957852825
1747503147.626453041,-0.0584644911903888,1.091826093569398,9.788293966054917,0.001200983962564582,-0.004658492404780425,0.002110645539715804
1747503147.636440875,-0.0786848664097488,1.071746608838439,9.854834110736848,0.0021888180301995242,-0.0013620087209397255,0.0027435045509925904
1747503147.646438626,-0.026046974868513643,1.0656784415245057,9.803532979488374,0.0008796112892456358,-0.002670999730240858,0.0026636541909998233
1747503147.656423252,-0.04784348533954472,1.0691863323748112,9.811507412195207,-0.0002166587852159887,-0.0051078685895149705,0.0018650505924941083
1747503147.666515211,-0.08220883710309863,1.0796650544553996,9.836149917840958,0.0005512460625635365,-0.003331617904655355,0.0025151483703426537
1747503147.676574212,-0.050974025214090946,1.083251517266035,9.81315164923668,0.0018603190602956893,-0.0018108504529359797,0.0024991210299776905
1747503147.686523838,-0.026721177105791867,1.071053275242448,9.792837837338448,0.0013106415710060337,-0.004222325655097266,0.002136899522696402
1747503147.696518089,-0.0696111525921151,1.0732376488298179,9.811535478830338,0.0002208334495202121,-0.0031639758151497444,0.0016562986844408148
1747503147.706468590,-0.06714967123232782,1.08044302649796,9.833035690784454,0.00022484878579095798,-0.0022603296271033065,0.0022532831733362547
1747503147.716516216,-0.037226120294071734,1.0790257345139982,9.809677233695984,0.0010940096709734129,-0.004100838175862466,0.00236107851957209
1747503147.726502009,-0.05681431557051838,1.0861086130142212,9.79304307460785,0.0006538320550469733,-0.005010976859363274,0.001654664637455564
1747503147.736501802,-0.055713700563646856,1.0874810276180507,9.817125416994095,0.0004424380194146512,-0.002690059537237689,0.002336337649015524
1747503147.746512094,-0.042536625503562395,1.090345505475998,9.798069925904274,0.0007672671130248366,-0.004100996040977864,0.002360714675591131
1747503147.756468137,-0.0731766476528719,1.0805842367559673,9.782833836078645,0.000764182761565091,-0.004459492893810758,0.0017963950017925437
1747503147.766359430,-0.08669631930068136,1.0880976895987988,9.826415473222733,0.0004418265196575176,-0.0033379525349943252,0.002406083081176852
1747503147.776351639,-0.05598250346258283,1.0994606568664314,9.79985157251358,0.001096137339027899,-0.0034340973316840393,0.0026181645907785577
1747503147.786485307,-0.06067282008938492,1.088251179009676,9.812904896736146,0.0017449702453958193,-0.004131927980845889,0.001817084694585422
1747503147.796529724,-0.07816045339219273,1.08086819216609,9.787563064098359,0.0012021004616426787,-0.004004317571772833,0.002149844202084733
1747503147.806525434,-0.07316761644557118,1.0966805250942708,9.802727233171463,0.0013122377771769675,-0.002708478261022894,0.0020104742723232967
1747503147.816515893,-0.05798872426617891,1.0831344267725944,9.81075896859169,0.0019661763326601113,-0.003022682115604781,0.002209490037938289
1747503147.826533186,-0.06585162133444102,1.0692935556918384,9.81250962495804,0.0019652451365387217,-0.003567828850075074,0.002176824572655623
1747503147.836525395,-0.07076527875848115,1.0708355395495892,9.804345157742501,0.0018565178139585215,-0.003458851466031191,0.0021832363150320164
1747503147.846446438,-0.06467280895449222,1.0721816416829826,9.810747274160386,0.0015319550689666347,-0.0024714668068301997,0.0023506146891718706
1747503147.856595564,-0.058940280955284835,1.0676950731128454,9.819782391786577,0.0014230663702676457,-0.0033249087672880917,0.002625061241734292
1747503147.866570565,-0.07448717770166695,1.0751509308815004,9.8273346555233,0.0013126368612289914,-0.003343807588277622,0.002298107763507976
1747503147.876451066,-0.06183549324050546,1.0694665601849556,9.815734949111938,0.0008787872437462299,-0.0025745340018338433,0.00245229906898841
1747503147.886445900,-0.056049696193076676,1.0661527238041164,9.792918528914452,0.0006565179076219265,-0.004017148338606726,0.0019313504299579838
1747503147.896540776,-0.07256819918286056,1.0738652012497187,9.8223797249794,0.00044177326943943226,-0.003658758636395817,0.002495427974559807
1747503147.906421277,-0.05908444222994149,1.0813896907120943,9.832541016340256,0.001097493886708158,-0.002350085958068733,0.002574551166739307
1747503147.916398612,-0.0407505752099678,1.070819021165371,9.788055399656296,0.0012015147742623215,-0.0034780197240216314,0.001855677643850953
1747503147.926424363,-0.06557793509680779,1.0733529851585628,9.84867348432541,0.0006582724990569089,-0.0035684694131380493,0.0021753711472892257
1747503147.936432322,-0.046346260090358554,1.0609239973872902,9.824076586961747,0.000985068892390802,-0.0032475028458779074,0.0020863895777385793
1747503147.946404115,-0.03587405674159527,1.068619371727109,9.802162976861,0.0015260775192542082,-0.004465404383222623,0.0016882992697110988
1747503147.956452324,-0.06071044783573598,1.0714683544635772,9.815913873910905,0.000983207800519649,-0.004337794494298218,0.0020210586471732478
1747503147.966437533,-0.05666525268461556,1.072041600868106,9.82614650130272,0.0008786013556222911,-0.0026835628805941167,0.002445766001939309
1747503147.976393576,-0.024330314579419792,1.0772867725789548,9.797319143414498,0.0008754105687449562,-0.003683671416081342,0.002060135594757982
1747503147.986436244,-0.06144671735353768,1.0758425834029914,9.805154412388802,0.001090925709625155,-0.004459334248472384,0.001796758455662015
1747503147.996472786,-0.07241082685533912,1.0763240285217763,9.83051086306572,0.0009851225327203751,-0.002926696224327766,0.001997044684355624
1747503148.006540537,-0.03322710444219411,1.0792563340812922,9.778986952900887,0.0003309711064020526,-0.0038957154749802185,0.002155408232198127
1747503148.016523705,-0.059234249722212556,1.0794748006761075,9.781549202799798,0.0008759950207722687,-0.004209973164947423,0.0023543030632519
1747503148.026543914,-0.07291103331372142,1.0843862425535917,9.831950447559358,0.0010956853298506961,-0.003119573585682153,0.0024198758629396704
1747503148.036612540,-0.04500177507754415,1.0827966038882733,9.805474255084992,0.0013125037031744876,-0.0031320311458593792,0.0022022300631502458
1747503148.046458625,-0.05631018965039403,1.0782465199381113,9.777646771073341,0.0015301736898761563,-0.004094339698698618,0.0024705063523472247
1747503148.056599584,-0.06276553857140243,1.086706271544099,9.820678185224534,0.0007698195474709606,-0.002895392898323351,0.002541522507661495
1747503148.066504002,-0.047065673181787136,1.0817951220273971,9.805301762223245,0.0008788669565269047,-0.003107116285579252,0.0026375216627290954
1747503148.076546669,-0.044981487980112436,1.0833686808496714,9.780571548342705,0.0008759950207722687,-0.004209973164947423,0.0023543030632519
1747503148.086550254,-0.07411915943026542,1.0812411714345218,9.811749486923219,0.0009873561810623817,-0.0036459260490416478,0.002713921616649394
1747503148.096476255,-0.05953994489740581,1.0742422004789114,9.812149436473847,0.00033498636139957184,-0.0029920708473797314,0.0027523931112050553
1747503148.106497631,-0.06018531762063504,1.0801604598015548,9.793507343530655,0.00043932704284586297,-0.004222750616544649,0.0021359303557235325
1747503148.116496840,-0.07888351642526686,1.0849844858050346,9.824671833515168,0.0009870897999347925,-0.003222374464576789,0.0025221659558596074
1747503148.126520258,-0.06493280905298889,1.083989289700985,9.82538753271103,0.0008822703541650931,-0.002851365696032702,0.0033042523640088393
1747503148.136510425,-0.05504830112680793,1.082278102040291,9.795909379720689,0.0008771120399990158,-0.0035557972916425307,0.002393501465546504
1747503148.146486010,-0.07735309909097851,1.0935908563435077,9.818276149034501,0.0012014618491371426,-0.003798824785125822,0.001945022277159583
1747503148.156514094,-0.06742262656800449,1.0923654261231424,9.81476548075676,0.0013119450635239514,-0.00345911934258615,0.0021826308620029435
1747503148.166496387,-0.06794018737971783,1.0842172580212355,9.794311335682869,0.0015282049272343692,-0.003798664579341497,0.0019453858610662168
1747503148.176465554,-0.08080715901218355,1.086499207019806,9.798715458512307,0.0010949412572062902,-0.003555689100723246,0.002393743334668943
1747503148.186471472,-0.07478872500825674,1.0863867942988874,9.831963311433793,0.000659522481282416,-0.0031260692020284244,0.0023104472499415603
1747503148.196428681,-0.06320857022423297,1.0797302509099245,9.8032885658741,0.0007642888068711926,-0.0038178832917510268,0.0016177057351752836
1747503148.206432849,-0.07433420905843377,1.0776957853138447,9.819512250423433,0.0012020202287133536,-0.0034717371085477016,0.0019646216083440476
1747503148.220659767,-0.06421324064489455,1.0849045251309872,9.818165051937104,0.001021427153017026,-0.0029266790594223023,0.0019970849958760306
1747503148.226489893,-0.0603333937888965,1.0936546640843154,9.82021976351738,0.0004376785292262728,-0.004029819679879269,0.0017132201117007057
1747503148.236528185,-0.05429515691008419,1.09440076880157,9.798652893304824,0.0008743465396619692,-0.004017042228282044,0.0019315926891919106
1747503148.246474603,-0.0579640289163217,1.083620622754097,9.801809805035592,0.0013095528998807338,-0.0037023041810361895,0.0017337882197465515
1747503148.256471187,-0.061020300015807154,1.0825899048149585,9.818539273738862,0.0007680382333990637,-0.0024906862994627053,0.0020229348233552625
1747503148.266416438,-0.06499071932863444,1.083045768365264,9.826327764987946,0.0007683035742293521,-0.002914240224596491,0.002214690744219374
1747503148.276364898,-0.05506515755318105,1.0821926596015692,9.77695212185383,0.0013106153034991882,-0.003368937009876041,0.0018623319055355984
1747503148.286540565,-0.06081308017484844,1.085734683573246,9.838685270547867,0.0013138064154694295,-0.0023688269139428646,0.002247961792568275
1747503148.296594316,-0.04695790625642985,1.0834246679395438,9.816374634504319,0.0010970682750749633,-0.0028889505972137463,0.0026508299260240608
1747503148.306474234,-0.051664599655196076,1.0882546873390675,9.813403079509735,0.0013108817496453587,-0.0037924885943409,0.002054087436288222
1747503148.316501152,-0.0563265572860837,1.0778747832030058,9.788599775433541,0.00207352149023902,-0.0033622811877454446,0.0019721238423660173
1747503148.326536819,-0.0675218510767445,1.0742957025021316,9.847620985507966,0.0009866911059942562,-0.002587044877247736,0.00223453207456344
1747503148.336581529,-0.030960392465349287,1.0834886218607427,9.783349560499191,0.000983154615320145,-0.004658600075551058,0.002110403540556203
1747503148.346554488,-0.07216719896066934,1.0805558777600528,9.799846894741059,0.002074027074727215,-0.0033559985722715147,0.0020810675467847865
1747503148.356463864,-0.07368445092346519,1.0716914257407189,9.854111394882203,0.0017534263020054712,-0.0017857747366857146,0.0029347756933145236
1747503148.366439157,-0.03582004993921146,1.0693625528365374,9.815174785852433,0.0012021536468421828,-0.0036835122505943178,0.0020604991786646156
1747503148.376425824,-0.06632738369051368,1.0779852224886417,9.790045791864395,0.0011995479621779734,-0.005209921234575998,0.0019690359799028815
1747503148.386577284,-0.07679128216579557,1.0704043073952199,9.813963242769242,0.00109547258905268,-0.0023752153796671523,0.002138775178729766
1747503148.396568910,-0.04832341383676976,1.061409462466836,9.815018080472946,0.0014227203413779632,-0.0023687741188548484,0.002248083247278145
1747503148.406532536,-0.05436627367045731,1.060892568603158,9.805674229860307,0.000983659614641108,-0.004652318760448754,0.00221934763508646
1747503148.416404578,-0.09452232409268618,1.058646214529872,9.834240217208864,4.786277335916675e-06,-0.003568787744112098,0.002174644239550283
1747503148.426466496,-0.0586797737935558,1.072012510970235,9.80807743549347,0.000439486695972247,-0.0032603328324888243,0.0018678958056118297
1747503148.436432455,-0.06329556126147509,1.0783865607529879,9.797220910191536,0.0019664422586576314,-0.0034462347403669408,0.0024012459588024005
1747503148.446465206,-0.07317226224113256,1.0640869756042959,9.825765262842179,0.001966654869418485,-0.002163012415355577,0.0020438665153077423
1747503148.456537332,-0.04958090324420482,1.057291999384761,9.812711938619614,7.41873035323063e-06,-0.0028957661049800174,0.002540674665361333
1747503148.466550833,-0.05034967049024999,1.0771906589716673,9.811833686828614,2.127232576029271e-07,-0.0047995197882163805,0.0015580600293588908
1747503148.476503084,-0.0795997637975961,1.0736626683175565,9.801028617024421,0.0015303328553631806,-0.0031319239952373955,0.002202472452421335
1747503148.486461460,-0.07001264160498977,1.0668332666158677,9.80415453851223,0.0017530541356461057,-0.0020038332744292367,0.0029217095592163223
1747503148.496473211,-0.05034112807363272,1.0771617883443834,9.828791781663895,0.0006601071933840538,-0.003652370430745854,0.0026046141982868283
1747503148.506496629,-0.06973089260514825,1.0875614999234677,9.800390685796739,0.0005482415539216283,-0.004222696521085006,0.0021360512902847523
1747503148.516492922,-0.06070262718480081,1.0718690349161626,9.78800686776638,0.0014219765288078824,-0.0028048901540445917,0.002221950458933092
1747503148.526448673,-0.07148004148621112,1.0750662193447351,9.84345659852028,0.0010949941823314691,-0.0032348842996933807,0.0023043987013603127
1747503148.536397715,-0.06435462906025351,1.0775857845693828,9.783148416280747,0.0007682512992899863,-0.0032350432051060796,0.0023040348573793537
1747503148.546481508,-0.057910280213691295,1.0845069875568152,9.799870868325234,0.0010949143395136316,-0.002702303056245273,0.0021191759775824642
1747503148.556538759,-0.05145810614805669,1.0754175639152528,9.815661274194717,0.00109531264334268,-0.003337633163722976,0.0024068099889157945
1747503148.566535052,-0.06120650185737759,1.079587871208787,9.818353332281113,0.0013154290191843714,-0.0037359489561904075,0.003034583636874723
1747503148.576489053,-0.05034184983931482,1.0775913394242527,9.78392785012722,0.0006604530272179926,-0.002580923507855432,0.0023431128452613887
1747503148.586527346,-0.04023277228698135,1.0788240786641836,9.823462629318238,7.445321429109643e-06,-0.003749153709903942,0.0028152421524849742
1747503148.596457430,-0.08043890319764614,1.0760350298881531,9.825060088634492,0.0012021004616426787,-0.004004317571772833,0.002149844202084733
1747503148.606460431,-0.0594248461117968,1.0765587942302228,9.765408548712731,0.0007696865194536193,-0.002683616976053759,0.0024456450673780894
1747503148.616437182,-0.052698497017845514,1.0876536666601897,9.820294607877733,0.00022511450047808885,-0.0026838840723857425,0.0024450393542746916
1747503148.626445433,-0.052259371122345334,1.0944294201582672,9.85163802266121,0.00011218501886109756,-0.0035875814950742458,0.0018479331505950566
1747503148.636437059,-0.053261510794982314,1.0951448269933464,9.776809449791909,0.0006580863508586448,-0.0036774985519726477,0.002168838080240125
1747503148.646422268,-0.059114020918495956,1.0812758892774583,9.795625789761544,0.0010948342366214692,-0.002169721422685677,0.0019339535138789411
1747503148.656441311,-0.031910962436813864,1.0838879135996105,9.825216794013977,0.000334480971967121,-0.0029983542430766373,0.0026434492767491236
1747503148.666436437,-0.05110207466874272,1.0974612014740706,9.800005939006805,0.0003286045925891581,-0.004992289478800134,0.0019811332071025386
1747503148.676590230,-0.0770185469929129,1.0829554288834333,9.806701585650444,0.0017484272833635807,-0.0035553707697491975,0.0023944702424078855
1747503148.686580397,-0.05861746440175921,1.072870005145669,9.823093085289003,0.0016408695150238186,-0.0024714134915935332,0.0023507358838074153
1747503148.696526523,-0.04918331998866052,1.079907275363803,9.807069375514985,0.0008747189010770786,-0.0037989839506128464,0.0019446588232901118
1747503148.706496274,-0.056338292830623686,1.0936851426959038,9.803485617041588,0.0005495444612723142,-0.003459492029094166,0.0021817830197027816
1747503148.716431025,-0.061073820311576134,1.0815604294091463,9.835436557531358,0.0012045194129413923,-0.0025869392870717036,0.0022347744638345295
1747503148.726444526,-0.04767829692922533,1.0720456939190626,9.791732713580132,0.0013126627386243492,-0.004197196753647497,0.0025726755107059423
1747503148.736422444,-0.05580973651260138,1.0700411953032016,9.791163194775582,0.0010917501452360487,-0.004555799456730748,0.002008113447636266
1747503148.746433028,-0.07330421745311469,1.0780963195860387,9.82657568693161,0.0006614101007347397,-0.002889165418606364,0.0026503456676305326
1747503148.756446821,-0.04328120446298272,1.0781940411776305,9.812283922433854,0.0003322208610625252,-0.00345331656424222,0.0022904847249619496
1747503148.766425614,-0.06327014871407301,1.094854585826397,9.806162472367287,0.001419503352012364,-0.004543076100593164,0.0022263652206034137
1747503148.776426281,-0.0820932540949434,1.0816952808201314,9.81931461453438,0.0015312100860620905,-0.002907583882317244,0.002324482420975468
1747503148.786488782,-0.04771103676874191,1.0713020011782646,9.81362995147705,0.0008775910318874585,-0.0026961262910217003,0.0022278778128787947
1747503148.796455325,-0.060014990055933595,1.0825043892860413,9.834551289081574,0.0007665755753941217,-0.004216307795286393,0.0022452375140117734
1747503148.806423326,-0.07436280559748412,1.0934205561876298,9.815439079999924,0.0013140988690481204,-0.0036457674037032738,0.0027142849404817025
1747503148.818909869,-0.07324238314758987,1.0792401080578566,9.81168165922165,0.0010961639966462324,-0.0022599041455072743,0.0022542524703462866
1747503148.826459953,-0.03179562153993175,1.0860612505674363,9.793428990840912,0.0005482414238844656,-0.004222697301307981,0.0021360514203219148
1747503148.836517496,-0.07818049837835134,1.0801528584212066,9.827421194314956,0.0020728306027941183,-0.0034775916416823474,0.001856646550749497
1747503148.846506788,-0.07606747909449041,1.065858462676406,9.821717820167542,0.0017540645243995195,-0.001991269083778677,0.003139597748276837
1747503148.856540123,-0.05875871120486409,1.0709263175725938,9.789057612419128,0.000223412769149704,-0.0028117592371218548,0.00211167400363482
1747503148.866568207,-0.05736387618351728,1.093198581263423,9.812377477884294,0.0005485607301372337,-0.004325443044445675,0.0022384620576915834
1747503148.876495958,-0.08285760395228864,1.1015079863369466,9.834389905929566,0.0020736556885908248,-0.003574055809643411,0.002068001282649423
1747503148.886537167,-0.06045411138329655,1.0757286357879638,9.80320728957653,0.001857820656290626,-0.0026956469740403513,0.0022289677843757207
1747503148.896542502,-0.03814077328657731,1.0643871570378542,9.797799199819565,0.0004385294273997559,-0.002952091701960868,0.0015606629832426856
1747503148.906457419,-0.05230190047994256,1.0780190632492304,9.808782609701158,-0.0003244829021740495,-0.003600359466820122,0.0016295607031410143
1747503148.916472379,-0.06831992749124766,1.093937376961112,9.824780591726304,0.0014208068445302818,-0.0037798705683050235,0.0022720966899471185
1747503148.926438338,-0.04971701089292765,1.0712440406531096,9.812520149946213,0.0026219231849263923,-0.002567399122796223,0.0025631812373900797
1747503148.936410714,-0.04459319174755365,1.0572083842009306,9.79402949988842,0.0003329123011653682,-0.003338004809933691,0.0024059618865413072
1747503148.946428298,-0.06429966980125755,1.0941676841676236,9.829008128643036,5.6903505497504516e-06,-0.004197835756264521,0.0025712216952280573
1747503148.956579174,-0.06468453536275774,1.0879920011758806,9.825635454654694,0.0010950465873079975,-0.002914080278886491,0.002215054328126008
1747503148.966574300,-0.03542760355398059,1.07608202688396,9.775687369108201,0.0020767929651757493,-0.002894752855409026,0.00254297632313938
1747503148.976510801,-0.05269116972573102,1.0719293343275786,9.789451714754104,0.0013120251664161138,-0.003991700586034258,0.0023678534557436295
1747503148.986514386,-0.06006459545809776,1.081675181016326,9.837492438554765,0.0006612244076665448,-0.002998193517143662,0.002643812340507107
1747503148.996501345,-0.031088923858478668,1.081573220193386,9.767270302176476,0.0015307316793408796,-0.0037672528023434725,0.002490105813568852
1747503149.006507554,-0.06595497543923558,1.0675779095292093,9.817390880584718,0.002181452595272611,-0.004228179147934611,0.0020289240749903634
1747503149.016463889,-0.05726906906347722,1.0621201915293932,9.844488047361374,0.000442810445848342,-0.0024720002192711913,0.0023494035230394
1747503149.026529306,-0.03115930743282661,1.080458156168461,9.765207404494285,-0.00021229797271350123,-0.003132778079321362,0.0022005343785499215
1747503149.036538724,-0.04565153321251273,1.0888008172810077,9.770875695347787,0.00022181734320174588,-0.004325604550601625,0.0022380987338592746
1747503149.046529767,-0.07528919185046107,1.0781810311228037,9.845423601865768,0.0018582184399710243,-0.003330978121815355,0.002516601665671888
1747503149.056485518,-0.03589873610297218,1.0681331757456065,9.811107462644577,0.000547204702605625,-0.003381871806440015,0.001643595614100597
1747503149.066451477,-0.04862079500220716,1.089113789498806,9.793672235012055,0.0003298543472496307,-0.004549891088210785,0.0021162098299035235
1747503149.076473436,-0.09400818938389421,1.0991304353624582,9.844610838890077,0.0008758350750622688,-0.0031448104179768815,0.0019838576156962036
1747503149.086582021,-0.06274892425630242,1.0869348976761104,9.824682358503342,0.0012023925251098818,-0.0032536785708041794,0.001977687742442249
1747503149.096481480,-0.0490095800254494,1.099149219542742,9.777277227044106,0.002179457825198304,-0.005106696174456956,0.001867715574104464
1747503149.106451814,-0.09483144993893802,1.0857496670633555,9.854755758047105,0.002727699834250001,-0.0032466495420169165,0.0020883275215728297
1747503149.116525399,-0.06133015219587833,1.0773001480847597,9.848137879371643,0.0006607460659639151,-0.0018302815160320376,0.0021709558654702536
1747503149.126498650,-0.04451377468183637,1.0908308974653482,9.78901083469391,-0.00010681379322322825,-0.00456266749951071,0.001897837122375156
1747503149.136465192,-0.08270098079927266,1.0879848383367061,9.824634411334992,0.0009838726155134495,-0.003369095655214415,0.0018619683216289644
1747503149.146529152,-0.07925153469666839,1.0788943183422088,9.84025700211525,0.0008793454932852783,-0.002247446845404373,0.0024718985302100366
1747503149.156499778,-0.056636171923018994,1.088853222951293,9.806180014014245,0.000982755531268121,-0.004023271528519307,0.0018227699193343607
1747503149.166435695,-0.07325484045781196,1.0790685653686525,9.808676775097847,0.0014191850210383155,-0.004440326456340593,0.0021239539330479324
1747503149.176372488,-0.07447423616889864,1.0914474863559007,9.833273087739945,0.0010981846441158974,-0.0022347762843548057,0.00269002858839299
1747503149.186425656,-0.047950749769806865,1.0836817261576652,9.803368088006973,0.0012019670435138496,-0.0037925426898005425,0.0020539662416526774
1747503149.196444115,-0.07854094267822802,1.0746066281944513,9.80014685690403,0.0015277260003645078,-0.004658335319888002,0.0021110093836967632
1747503149.206432824,-0.08529025579802692,1.0784345079213382,9.831914194822312,0.0013146313712289737,-0.002465291341978253,0.0024593166545053636
1747503149.225550410,-0.0439551600208506,1.0834259104728698,9.81654186487198,0.0008771787490634304,-0.003661684732628676,0.0024414401856882066
1747503149.226392160,0.0,0.0,0.0,0.0,0.0,0.0
1747503149.236590578,-0.08651914866641164,1.0750035079568625,9.806709187030792,0.0012034031739376208,-0.003241113599930644,0.0021955758014656004
1747503149.246477495,-0.06354358370415866,1.0742405194044113,9.811926072835922,1.0210730333776327e-05,-0.0012603273319779264,0.0026386706710978427
1747503149.256546705,-0.0570789568964392,1.0817339455336332,9.803745233416558,0.0008762876694067035,-0.003459332083384166,0.0021821463435350904
1747503149.266504789,-0.054527309644036,1.0909129777550697,9.772497128248215,0.001745769843908656,-0.003375002463288427,0.0017538716792873815
1747503149.276540457,-0.07231601516716182,1.078068252950907,9.80867151260376,0.00174935795933632,-0.003010224555427555,0.0024271358377277136
1747503149.286615791,-0.051606917786411945,1.0729298660159112,9.824481214284898,0.0013125579286712924,-0.0028112242642349124,0.0021128849096929653
1747503149.296591959,-0.03407480453141034,1.0816574931889773,9.786061499118805,0.00011300938132608727,-0.0036840446227380083,0.00205928775245782
1747503149.306477710,-0.058993792114779356,1.0830769047886133,9.809702961444856,0.001964819915017015,-0.004106693229145762,0.0022531032019032144
1747503149.316484794,-0.07818513960577549,1.0639706891030074,9.823484848737717,0.0027302001888125033,-0.002361851200392268,0.0023584803770633116
1747503149.326505295,-0.026991434956435117,1.0510691732168198,9.739783710837365,0.0008778565677734909,-0.0031196802161554864,0.0024196337337429063
1747503149.336425463,-0.043000442180782555,1.0666723950952293,9.802650634646417,3.5897083829057563e-06,-0.0036903810735972554,0.0019502229834406685
1747503149.346422047,-0.08076513214968145,1.0703733171522618,9.865611698627472,0.0013111214081360334,-0.0033626533541048103,0.00197127573999153
1747503149.356432048,-0.024430742792319507,1.0599329674243927,9.755403378009797,0.0018561464278221316,-0.003676908703403087,0.0021701700508966527
1747503149.366413466,-0.05699244551360608,1.0669526959955693,9.806877586841583,0.000984777023979343,-0.003998141326697912,0.0022585457773067388
1747503149.376429008,-0.08764737806282938,1.0723719685524702,9.865347404479982,0.0006583789344744983,-0.0029268574704093917,0.0019966813605233153
1747503149.386447468,-0.04879869197029621,1.0698146887868643,9.822463924884797,0.0006616494341325079,-0.0024593306985189246,0.0025675341013710034
1747503149.396383677,-0.0445973533205688,1.073562534749508,9.766055835485458,0.0009824630126708488,-0.004773912350008238,0.0019949263789768453
1747503149.406431011,-0.07457809276878834,1.0736069004982711,9.835222549438477,0.000877164835087032,-0.0032349927506869903,0.002304156832237874
1747503149.416473096,-0.04325627613812685,1.0785371265560388,9.818290182352067,0.0002246625725741126,-0.0023693595461608805,0.0022467503663614794
1747503149.426471138,-0.03779670119052753,1.0859729576110841,9.809051581621171,0.0008759952158280127,-0.004209972384724447,0.0023543030632519
1747503149.436426014,-0.06109483374282718,1.0814177573472261,9.81547533273697,0.0015301194643793515,-0.004415147620620385,0.002559851505804505
1747503149.446435140,-0.07394518649205566,1.083928551748395,9.823885967731476,0.0009874624864428085,-0.003004315146610291,0.0025352318298834838
1747503149.456528850,-0.03140708776423708,1.0761691503971815,9.794869160056114,0.0002269493410970417,-0.0027677843097705717,0.002874282145197969
1747503149.466530392,-0.055257960353046656,1.094485480338335,9.85247066617012,0.0009838994031689454,-0.004222482479915364,0.0021365358087526054
1747503149.476452602,-0.06119379329960794,1.0960274641960859,9.809337510466577,0.0014225618260767518,-0.0033311895622417454,0.002516117147204035
1747503149.486534353,-0.052004021387547256,1.0828509829938413,9.806087628006935,0.0015303322051773676,-0.003131925035534696,0.002202472452421335
1747503149.496465895,-0.04184582265559584,1.068787990808487,9.839747124910355,0.0008777500023187389,-0.003761292158884144,0.0025983232604344917
1747503149.506471230,-0.06909773964900524,1.0813285142183304,9.830986826419831,0.000658857731307197,-0.004094768041112227,0.0024695375754858434
1747503149.516464897,-0.07075257020071149,1.0872752056270838,9.795328166484833,0.0014209400025847856,-0.0039916459704259655,0.002367974390304849
1747503149.526427357,-0.06944156049750745,1.0760109832137823,9.807714908123017,0.001531901103544155,-0.0027922731683060163,0.0024399598426291507
1747503149.536387483,-0.055664341840893035,1.0720420394092798,9.826203804016114,0.0005479754328683642,-0.003799145196694472,0.0019442956294949657
1747503149.546396025,-0.05292647904250771,1.084223105236888,9.795141055583954,0.0010914314241505124,-0.004453050852775478,0.0019057024201551095
1747503149.556513068,-0.05892780994065106,1.0842778497934342,9.795808807611467,0.0016392475614946899,-0.0031318698997777534,0.0022025931269082292
1747503149.566508777,-0.05896055434830487,1.0835341570526362,9.817710138559342,0.0008761017812827645,-0.0035683607020701143,0.0021756131464488273
1747503149.576453153,-0.06746856832411141,1.0754684346914292,9.815771201848984,-0.00010431429202960569,-0.003677869417960387,0.002167989977865638
1747503149.586528196,-0.06209573545027525,1.0978286258876324,9.788443070054054,0.00044039090938239673,-0.003889378764046646,0.002264473131252441
1747503149.596531197,-0.06536336512304843,1.0935959726572038,9.784024913907052,0.001854949305703222,-0.0037985025530368954,0.0019457487947870378
1747503149.606633948,-0.07458174727857113,1.0896747567504645,9.837153300046921,0.001420859639618298,-0.0034590655072008333,0.002182752056638488
1747503149.616512116,-0.051321751819923524,1.0941449531167746,9.776857396960258,0.0004427041079586246,-0.003113611381776873,0.0025280933098053102
1747503149.626517450,-0.06003624559845776,1.0989162079989911,9.77266143500805,0.0010969616446016301,-0.0035305622798680785,0.002829519712789971
1747503149.636470284,-0.0704955028463155,1.0911060820519924,9.827487852573395,0.0010966959786784351,-0.0031070091349572684,0.0026377637919258595
1747503149.646461035,-0.0675919719832018,1.089448908045888,9.833537381887437,0.0008793191607598514,-0.003421638991283838,0.0028358103905679827
1747503149.656577786,-0.065463320533745,1.075955873206258,9.772019995450973,0.0017428969328753005,-0.004477860382953898,0.0014706533398845113
1747503149.666542579,-0.08414077542722226,1.0810656087845565,9.808189702033998,0.0017475239151949881,-0.002926322497522449,0.001997892396618623
1747503149.676712997,-0.06818797684740276,1.0635167989879848,9.850946881771089,0.0020771116862612856,-0.0029975006791413206,0.0026453870905462115
1747503149.686467498,-0.062320076669566335,1.0619189011305572,9.78833665072918,0.001963383004370268,-0.0046581230992386365,0.0021114939021646168
1747503149.696435499,-0.07273852217942477,1.071521271765232,9.781333440542221,0.0016397522357227462,-0.0031255893648984246,0.002311537481512811
1747503149.706361500,-0.05916752750985325,1.06383503369987,9.839495694637298,0.0008807812986161431,-0.0016960186657946133,0.002613507959985797
1747503149.716402709,-0.04654029171913863,1.0739325904101134,9.824823861122132,0.0014176686576852192,-0.004459175082985359,0.0017971220395686489
1747503149.726443918,-0.07378903842531145,1.0706917711347341,9.784221380352975,0.0014204336378736153,-0.003997931186643148,0.002259030815923242
1747503149.736485419,-0.07002876712940634,1.066318200007081,9.83006062746048,0.0015339481485578282,-0.0015929519909396199,0.0025118241003179082
1747503149.746558129,-0.05172690447885543,1.0545744328200817,9.852335010766984,0.0013121584545077805,-0.0021758959772774857,0.0018252515485454482
1747503149.756532546,-0.04601172626484186,1.066700023189187,9.785527648329735,0.000981878040494886,-0.004247612421662434,0.0017007596907059022
1747503149.766511922,-0.07390827137511224,1.0683180208504202,9.829960055351258,0.0013135413997320477,-0.0019452731188462414,0.0020562056116298385
1747503149.776476715,-0.038479215153492986,1.0748220980912448,9.82332463502884,0.0008780964863384906,-0.0026898441956964207,0.002336821647334727
1747503149.786471549,-0.03353255979018286,1.073880623281002,9.824542025327682,0.0013078775010777757,-0.004683568251067852,0.0016749906163046459
1747503149.796417967,-0.054055923563428226,1.0658959579467775,9.805981208682061,0.0013115736773875615,-0.0036771757997350707,0.0021695644678304173
1747503149.806463551,-0.04941473268438131,1.075990006327629,9.825781635046006,0.0007667883161921378,-0.002933085210200704,0.0018878584606286028
1747503149.816435344,-0.037300893848296254,1.0779966245591641,9.791656115055085,0.00022210989430830868,-0.0035749634690383694,0.00206594227421679
1747503149.826442720,-0.055826104148291054,1.0696693123877048,9.80211386024952,0.0010941965343760711,-0.003991806696358941,0.00236761106647254
1747503149.836438429,-0.07239030221477151,1.0767529217898846,9.820562410354615,0.0010962438394640697,-0.0027924859091040324,0.0024394753241612976
1747503149.846508805,-0.04395564881153405,1.083712131679058,9.786632187366486,0.0004411352746104185,-0.003453263249005553,0.002290605659523169
1747503149.856544765,-0.052235169131308795,1.0952019104361534,9.812778596878053,0.001310536370941489,-0.004863933956785371,0.002315588659276499
1747503149.866499641,-0.07090529673267157,1.0845873867720366,9.81810774922371,0.0017458481262805422,-0.003907586827628437,0.0019390947931767176
1747503149.876528892,-0.05717426194343716,1.0802760154008866,9.79567432165146,0.001314711214046811,-0.0029978733656493366,0.0026445389881717242
1747503149.886552309,-0.05013071967288852,1.080936385318637,9.79011771261692,0.0008775376516322106,-0.0030169329125718423,0.00231722270626175
1747503149.896507769,-0.05977917824406177,1.0863356311619283,9.83179374217987,0.0007683306869777545,-0.003767626009000139,0.0024892577111943646
1747503149.906457686,-0.06871311619877815,1.0876473809033633,9.819405831098557,0.0006592830828660666,-0.0035559044422645144,0.002393259076275415
1747503149.916433854,-0.053343856036663057,1.0935719990730286,9.801650176048279,0.0010963764773699231,-0.0030042631317452506,0.002535353024519028
1747503149.926450855,-0.05700882685370744,1.0829921201616526,9.790855046510696,0.0015314756219481228,-0.0033311372873023794,0.0025162383418395797
1747503149.936404564,-0.06669857224915177,1.0876764708012343,9.837472558021545,0.001420408280626908,-0.003144540980975971,0.0019844628086509507
1747503149.946430607,-0.05588744052685798,1.0846504636108876,9.819940266609192,0.0009875422642420643,-0.0035368969102070494,0.0027204544236241694
1747503149.956440900,-0.057037903047166764,1.0825920244306326,9.783847158551216,0.0005503687668460453,-0.0035559569772782053,0.00239313788163987
1747503149.966445068,-0.08236130325123668,1.0932452858984472,9.846904116868973,0.0015317159306246105,-0.0029013004866203385,0.002433426515505725
1747503149.976430860,-0.062149022771045566,1.0802445866167545,9.847268983125687,0.0014229337323617922,-0.003113131804721199,0.0025291832813022362
1747503149.986440861,-0.047603996177203955,1.073361025080085,9.779840061664581,0.0008743469297734569,-0.004017040927910417,0.0019315924291175852
1747503149.996430154,-0.08671709518879653,1.087811833843589,9.821410256624223,0.001421790315591037,-0.00291391929287919,0.0022154173918839913
1747503150.006530280,-0.07083859279286117,1.0853588537871839,9.84907928109169,0.0013153223887110382,-0.0023499803678927005,0.0025747935560103963
1747503150.016455989,-0.04711991981137544,1.0811950515210629,9.77733219087124,0.0018540178495075072,-0.004343650327804489,0.0019130837196158598
1747503150.026603074,-0.07376361217349768,1.0707484160363674,9.820135563611984,0.0014215511772490128,-0.0033437545331152802,0.002298229218217846
1747503150.036653908,-0.08323808410204947,1.0788349691033363,9.873946319818497,0.0008793460134339287,-0.002247445545032747,0.0024718982701357117
1747503150.046612576,-0.04867455284111202,1.0718160445243121,9.822584377527237,0.0015300939770954815,-0.0035617581951761846,0.002285283758606539
1747503150.056593993,-0.05573544489685446,1.071356526464224,9.779274635910989,0.0015282319749641904,-0.004652051404042446,0.002219953088115533
1747503150.066493161,-0.07842461963184179,1.0762073034793138,9.828175485134125,0.0013141261768522669,-0.002471573437303533,0.002350372299900781
1747503150.076491787,-0.047384552001021804,1.0604090769588947,9.815008724927903,0.0012041748144604983,-0.0036583830890702237,0.0024962752967113188
1747503150.086462705,-0.0504254193417728,1.0603229767084121,9.760969927310944,0.0004395930013526738,-0.004646302721158157,0.002327686016513319
1747503150.096417581,-0.07640714293811471,1.060598015114665,9.79944694519043,0.0012068068966687158,-0.002985363010384094,0.0028623059825966936
1747503150.106434582,-0.05414293287321925,1.048140887618065,9.826887928247451,0.0008788403639271527,-0.0022537286806553277,0.0023629541756054547
1747503150.116438749,-0.049064073334448045,1.0658696454763412,9.788302736878396,-0.0001054310511820276,-0.0043320460714882545,0.002128791575571034
1747503150.126442917,-0.07938105052337051,1.06114019818604,9.791331594586373,0.0008763412447176952,-0.0031385254618340247,0.0020928010600406474
1747503150.136428126,-0.0563842345867306,1.060376771092415,9.831467467546464,0.0007709364366605452,-0.002241217805241435,0.002580721170030424
1747503150.146410711,-0.02789166862377897,1.0682795023173095,9.796599935889244,0.0002222427760338421,-0.0037867401715309373,0.0021618203646860084
1747503150.156436753,-0.04909241405781359,1.0814512326568366,9.799182066321373,4.493785660400864e-06,-0.004319426224932102,0.0023468004391184426
1747503150.166562254,-0.07339976004324854,1.0767814269661904,9.80355052113533,0.0002264972669012575,-0.002453261343991661,0.002675993417359082
1747503150.176518589,-0.03777984248008579,1.0860584000498057,9.828010593652726,0.0006619156202043532,-0.0028828822829837833,0.0027592897621607896
1747503150.186519840,-0.04135415861383081,1.07716588139534,9.794375655055047,0.0005472576927493851,-0.005088648056585165,0.002192730588347879
1747503150.196485216,-0.07222901499364526,1.0794120161980392,9.81474092245102,0.0008775374565764667,-0.0030169334327204925,0.00231722270626175
1747503150.206653300,-0.04475716503337026,1.086455864533782,9.834628472328186,0.0009874358938430565,-0.0021509275416863667,0.0022606643427598425
1747503150.216677301,-0.036999111282639205,1.0830288114398718,9.77500733792782,0.00022011564438265168,-0.004453478414966112,0.0019047335132565655
1747503150.226673302,-0.0722575978282839,1.0951368601620197,9.810666582584382,0.0006568370188189506,-0.004119895902264695,0.0020337611973648153
1747503150.236604261,-0.06734834865666926,1.0772694502025844,9.829850127696991,0.0016405494935666561,-0.0023686669682328647,0.002248325116400584
1747503150.246477762,-0.03600186408497393,1.082685799151659,9.803971520662309,0.0008766069756594714,-0.00356207886681916,0.002284557110941922
1747503150.256532680,-0.06300965982489289,1.0827607166022062,9.821432476043702,0.0006567039908016093,-0.003908119979995103,0.0019378834970070844
1747503150.266536264,-0.08844987186603248,1.0920996701717378,9.826552298069,0.00044320923731675025,-0.003107329806600244,0.0026370371442612423
1747503150.276500182,-0.06020950133912266,1.0957992766052485,9.805388885736466,0.0008773513083782026,-0.003125962571555091,0.0023106896392126493
1747503150.286467600,-0.06322444450110197,1.095483380779624,9.817172194719316,0.0009818786906806989,-0.004247610080993507,0.001700759430631577
1747503150.296421601,-0.07806833233684302,1.0981078304350376,9.827477327585221,0.00044182661718538953,-0.0033379517547713496,0.002406083081176852
1747503150.306408268,-0.058620899640955036,1.1052060578763485,9.813007807731628,0.0010929734048246414,-0.0032600126809944996,0.001868622453276447
1747503150.316495269,-0.07329589430708439,1.0946219397336245,9.801601059436798,0.0018536469835197676,-0.00456170678495341,0.0019000173254433332
1747503150.326528020,-0.09211459600366652,1.0813766806572676,9.830709668397905,0.0012063018323291714,-0.0029916445855607235,0.002753362148140762
1747503150.336505938,-0.06298082574270666,1.0833039229363204,9.81348494052887,0.0006635376387520634,-0.0022224248345022626,0.0029074319989113254
1747503150.346440106,-0.05654111355543137,1.090454409867525,9.799296087026596,0.0008774310861774586,-0.0036585443351518495,0.0024959122329533353
1747503150.356455648,-0.0820311822462827,1.0826960317790508,9.819376595020294,0.0016396461253980635,-0.003767199747181131,0.0024902270082043966
1747503150.366420733,-0.06462295687291772,1.072867666259408,9.822760963439942,0.0018599476741592994,-0.002028908210456526,0.002486054635805164
1747503150.376426942,-0.057021530843339864,1.0665525271743537,9.799872037768365,0.0012051047102102617,-0.003113238955343182,0.002528941152105472
1747503150.386427610,-0.07221288946922869,1.06351570263505,9.81580979347229,0.0010943029047750792,-0.003350195793927584,0.002188921539780955
1747503150.396425944,-0.057584055829793215,1.057345939949155,9.81326976299286,0.0010981313288792307,-0.0025555816055333213,0.00277937374185027
1747503150.406433028,-0.04642128260806203,1.0600381442159414,9.79110296845436,0.0006596552492254322,-0.003337846684743968,0.002406325470447941
1747503150.418669321,-0.04590835845563561,1.068415523171425,9.78064463853836,0.0005486671005362417,-0.0036838321420143176,0.0020597725309999984
1747503150.426457405,-0.053410075753927234,1.0761028575897218,9.827561527490616,0.0006590172869057091,-0.003132351037279379,0.0022015031554113032
1747503150.436458073,-0.027875047456473113,1.0685082015395164,9.800604109168054,0.0008777233447004055,-0.0029079045539602195,0.0023237557733108505
1747503150.446436574,-0.03355381533270702,1.0738811349123716,9.78962830066681,0.00032852487980848335,-0.0044597066749060745,0.001795910613361853
1747503150.456519200,-0.059837335199117665,1.0855352204293014,9.817779135704042,0.00033126362499932474,-0.003145075173639938,0.001983251772555643
1747503150.466485743,-0.04130846353713423,1.077794676348567,9.80538713157177,0.0014221095568252237,-0.0030166665964628343,0.002317828159290823
1747503150.476415244,-0.04586657827254385,1.068844050988555,9.805611079931259,0.0013113865539105779,-0.0037862070191642706,0.0021630316608556416
1747503150.486442453,-0.061852107555605475,1.0692379340529443,9.81172960639,4.094926887601837e-06,-0.003684098718197651,0.0020591668178966
1747503150.496513996,-0.05883226735051721,1.0855928155034782,9.818835142850876,0.0008753038732530416,-0.004325283618884325,0.002238825641598217
1747503150.506472080,-0.057141270856373015,1.0808764513581992,9.78872899889946,0.001962825925165683,-0.004985207654924854,0.0020918944409429895
1747503150.516500456,-0.08011683125048877,1.0652281328290703,9.810485318899156,0.0017513249014578305,-0.003305903055750903,0.0029522571092316973
1747503150.526504332,-0.06468942326959223,1.0719530155509711,9.806743685603143,0.000767745584764629,-0.003241326860877311,0.002195091282997747
1747503150.536481958,-0.06602536129765213,1.0664629916846753,9.815327982902527,0.00033442781927690764,-0.003319159564255153,0.0027327941701320788
1747503150.546499834,-0.0627205881010741,1.0713532374054193,9.813800690174103,0.0005519907853937554,-0.002895499528796684,0.002541280378464731
1747503150.556519752,-0.060805017412640154,1.0859921803325414,9.825732518434526,0.00022702910264165243,-0.00330036607336733,0.003059504738938655
1747503150.566512253,-0.06137609852012247,1.0768144637346269,9.822172733545305,0.0009856011995159114,-0.004094607315179252,0.002469900899318152
1747503150.576508837,-0.06560334307607264,1.0732962671667339,9.812756377458573,0.0007664957975948657,-0.003683726031689635,0.002060014790233925
1747503150.586527296,-0.07628228204324843,1.078581273034215,9.817461047172547,-0.00010535127338277155,-0.002837047304058648,0.001675534561755808
1747503150.596507256,-0.056442149430513386,1.075844556838274,9.805431570410729,0.0005538788599761483,-0.002658594445002998,0.0028811785360793782
1747503150.606463882,-0.04281788571272046,1.08574235804379,9.80476966559887,0.0007681975939418319,-0.003555850346804872,0.002393380010836634
1747503150.616471841,-0.05656970552634448,1.0897679467499257,9.822198461294175,0.000877111649887528,-0.0035557985920141567,0.002393501725620829
1747503150.626582759,-0.06625580098014325,1.0947957482188941,9.839909677505494,0.0010929195694393242,-0.003580820342841942,0.0019579674766965647
1747503150.636585177,-0.041577019756659866,1.0896311949938535,9.803069880008698,0.0006573954634137429,-0.0037928079656122495,0.0020533605285492796
1747503150.646531011,-0.06175608074292541,1.1030890734493732,9.810715699195862,0.0009833141709186572,-0.0036961830717182104,0.0018423689904445
1747503150.656450887,-0.06264922922942788,1.1047183270007372,9.82173419237137,0.0014216576776851836,-0.002702142850460948,0.002119539301414773
1747503150.666511055,-0.04622139005921781,1.0953186354786157,9.815113974809647,0.001203163905558434,-0.003670948580092409,0.0022783873677251296
1747503150.676431222,-0.05067223579622805,1.0882839234173298,9.796502872109414,0.0006564112771485932,-0.004658761321632685,0.0021100400866867317
1747503150.686524932,-0.06681440650485457,1.1022008813917636,9.812378647327424,0.0013096323525870833,-0.004234886984930249,0.0019190110735615624
1747503150.696472808,-0.06027157318778336,1.0947985987365247,9.805326320528984,0.001857315591951082,-0.0027019293294399563,0.002120023819882626
1747503150.706469684,-0.038557896749116485,1.090004028081894,9.792285860180856,0.0016370665782035369,-0.004119416585283346,0.002034851558973229
1747503150.716519935,-0.08086873750202359,1.0852123079448939,9.82856490969658,0.0009844577827451562,-0.003895394803337243,0.0021561350098999073
1747503150.726522352,-0.051987635479308666,1.0832228659093381,9.795134623646737,0.0014247424192564168,-0.0023436441771077783,0.0026838585851018727
1747503150.736469353,-0.03271393817849457,1.0874905293434858,9.783485800623895,0.0013127697592091702,-0.003555583770621539,0.002393985723940032
1747503150.746515521,-0.051296585951931775,1.0943448548018933,9.797818495631219,0.0014208859071251434,-0.004312453632273408,0.0024573195437621294
1747503150.756469230,-0.08476879379712046,1.0867830893397332,9.838413959741592,0.0015312107362479034,-0.002907582842019943,0.002324482420975468
1747503150.766408648,-0.03770188950235024,1.0877173282206059,9.787212231159211,0.001422056631700045,-0.003337471657567025,0.0024071733127481033
1747503150.776434399,-0.05993678811471909,1.084020060673356,9.808707765340806,0.0013114403892958949,-0.003465400397614129,0.002073686637435524
1747503150.786433317,-0.07447862158063799,1.0751221333444119,9.844289242029191,0.0018604008536709656,-0.0023434306560867865,0.002684342843495401
1747503150.796426401,-0.05559420723002404,1.0733002140372991,9.813311862945557,0.001749809578402035,-0.0033247488215780918,0.002625424565566601
1747503150.806442527,-0.04997799314092845,1.0672129701822997,9.794314844012261,0.0017456623031751846,-0.004016615446314385,0.001932561726127617
1747503150.816467403,-0.07138938223477453,1.0603419801592828,9.847590579986573,0.0012047862491990507,-0.0030104906114622374,0.0024265301246243157
1747503150.826452321,-0.05433304047212005,1.0613498939573764,9.813681406974792,0.0014222423247682399,-0.0032284427788067515,0.002413706379797204
1747503150.836429947,-0.06688624046277256,1.0527107790112495,9.801508088707925,0.0017462481205927044,-0.004542913814214238,0.0022267280242870722
1747503150.846425948,-0.08121744168922305,1.0474442649632694,9.813375012874603,0.0014224823733704024,-0.0027986072784963365,0.002330894293389024
1747503150.856534824,-0.04537051054649055,1.0443132271617652,9.830144827365876,0.0008763141319692928,-0.0022851394173560515,0.0018182339630284942
1747503150.866521491,-0.03969615320675075,1.0390263940393925,9.825162999629974,0.0005476034615647425,-0.004017201653843392,0.0019312293653596017
1747503150.876520409,-0.07509197623003275,1.0493908761441708,9.812832391262054,0.0014162330474100982,-0.005010602352334981,0.0016555124797557259
1747503150.886538577,-0.0702364757610485,1.047048481553793,9.806979913115502,0.000985441123768749,-0.0030294445682087106,0.0020994557118367806
1747503150.896476828,-0.06633960345759989,1.0612591890245677,9.828973045349121,-0.000865544974311285,-0.002703262990579597,0.0021169957745142873
1747503150.906457079,-0.0676511065196246,1.0728097788244486,9.786677795648576,-0.00032333971296832887,-0.0037995696379932034,0.0019433264625220966
1747503150.916508788,-0.08364472140558064,1.0729462382197381,9.805750828385353,0.00022362552620236543,-0.003556116922988205,0.0023927742977332364
1747503150.926523747,-0.061297887442633515,1.0783301351219416,9.796328040361406,0.0010951008128048023,-0.0025932728771133735,0.00212570878455724
1747503150.936412415,-0.06468086258042605,1.0719240718334915,9.823697687387467,0.0007670545022639832,-0.003356637054739888,0.0020796138613440643
1747503150.946424749,-0.07719644852913916,1.0800677083432675,9.8085177308321,-0.0004299408304121223,-0.003023854530662796,0.002206825056327933
1747503150.956449917,-0.05349658256862313,1.09088403403759,9.824427419900895,0.0003340025327366194,-0.0018304421119278507,0.0021705926716751073
1747503150.966421126,-0.05315813384950161,1.0804490929841997,9.79890081524849,0.0015281783996531986,-0.004972857765518262,0.002309298241572813
1747503150.976430252,-0.08311493625864387,1.0814090596139432,9.814253264665604,0.0013096323525870833,-0.004234886984930249,0.0019190110735615624
1747503150.986458337,-0.05748875991906971,1.0752153964340687,9.794364545345307,0.0009872498106633736,-0.0022599569405952905,0.002254131275710742
1747503150.996439463,-0.037610261805821214,1.0888318806141615,9.824191192388534,-0.00031940430078864694,-0.002363344287093259,0.0023550884877140132
1747503151.006434880,-0.058728657430037856,1.1035765850543977,9.801933766007425,2.7919954089266993e-06,-0.004447303730337141,0.002013435348552896
1747503151.016462381,-0.0738164015673101,1.102112076804042,9.82794627428055,0.0008816326519196952,-0.0026458705687167636,0.0030994303090465265
1747503151.026461591,-0.041870741844177245,1.0848562856018544,9.806764735579492,0.0006646014727793064,-0.0018890546724873744,0.0030359755546632097
1747503151.036440092,-0.0579970291396603,1.083020113706589,9.80875629723072,0.0004427840157950432,-0.003646192625224981,0.0027133159035459963
1747503151.046442801,-0.06329483492765577,1.0943683167546987,9.815110466480256,-0.0005378445626229858,-0.0030113446955462044,0.002424592310827228
1747503151.056518719,-0.02534710655221716,1.1094509171694518,9.784174602627754,0.0007668152338847963,-0.0037864715147530024,0.002162425687677919
1747503151.066505095,-0.052475142516195776,1.0913135120272637,9.814533931016923,0.002398670182685589,-0.004875964995069264,0.0020989120264599437
1747503151.076571096,-0.08766790727153422,1.0883543092757464,9.848321481943131,0.0014201151768624043,-0.0038951825826878776,0.002156619528367761
1747503151.086543180,-0.06118573510553688,1.0962850340455772,9.796383588910103,5.823306945060848e-06,-0.0023820295870617975,0.002028619788029876
1747503151.096540056,-0.04017046289518476,1.1125043331831694,9.78452952861786,0.0012002127121531923,-0.004241222395492195,0.0018099457843957609
1747503151.106473057,-0.08688594267703593,1.101020328551531,9.843117460012436,0.0029465398953407588,-0.003233978200744373,0.0023064577097929454
1747503151.116541975,-0.04304489929229021,1.0817389887571336,9.839434883594514,0.001857874231601618,-0.002374841132713185,0.0021396228909927656
1747503151.126503267,-0.026989966300316158,1.0830327583104373,9.775562823414804,0.000434700385619082,-0.005774287201604471,0.0016086907788407704
1747503151.136481185,-0.08026930653490126,1.095219671353698,9.79426806628704,0.0010899151908345787,-0.004471898959271594,0.001578870526675826
1747503151.146523853,-0.06724057716317475,1.0788990692049265,9.8409224152565,0.0029506347655910807,-0.0008353356509558367,0.0024501857050218097
1747503151.156482229,-0.03190363742876798,1.0681635812669994,9.794375070333482,0.0018556665906921319,-0.004536580484246893,0.002335793573527199
1747503151.166425146,-0.08310345196165145,1.0657418107241392,9.78441141486168,0.0014177488906145443,-0.0049917552861361665,0.0019823443732350093
1747503151.176391106,-0.07195166054181755,1.0674036625027656,9.848969353437424,0.0009893770235877906,-0.0015932176568628149,0.00251121786706586
1747503151.186436398,-0.03218465324258432,1.0634171039611102,9.816029648780823,0.001315641239833737,-0.002452728191624995,0.0026772045834915527
1747503151.196459233,-0.03039028893923387,1.060416239798069,9.781038740873337,0.001636216135160123,-0.005197143262830121,0.002187408687431249
1747503151.206590859,-0.08221420923247934,1.0475010560452938,9.814322261810304,0.0008773515034339465,-0.0031259620514064407,0.0023106896392126493
1747503151.216661235,-0.05046573772095144,1.0590354198217393,9.825731348991395,0.0006633250930097911,-0.0014780662383757739,0.0026263314447385836
1747503151.226531819,-0.045589708043262366,1.0735332986712456,9.782955458164215,0.0007665225202317803,-0.004537113116464909,0.0023345821473204032
1747503151.236602778,-0.0823336934298277,1.0616818696260453,9.81813347697258,0.0008768465041129835,-0.0031322433665087446,0.0022017455446823922
1747503151.246525863,-0.06235281650908291,1.0611752083897592,9.81023505806923,0.00088136646584785,-0.0022223184641032546,0.00290767464825674
1747503151.256576405,-0.041834333790466194,1.069532122090459,9.78293031513691,4.5469652723705575e-06,-0.003998621944050887,0.0022574558058098128
1747503151.266492198,-0.08429374407045544,1.0785209005326033,9.816013276576996,0.00142056783622542,-0.004209704248095162,0.0023549082562066477
1747503151.276503949,-0.0721711047179997,1.0803555375337601,9.813800690174103,0.001638875135060999,-0.003349929217744251,0.002189527252884353
1747503151.286527950,-0.055267731598578396,1.0788185968995094,9.787714506983757,0.0003285780324986967,-0.004138901873876209,0.0017065657199788978
1747503151.296486909,-0.07676196386106313,1.0870725265145302,9.808950424790384,0.001312689916391333,-0.003023002007024781,0.0022087631301993464
1747503151.306484077,-0.0706401666160673,1.088675686866045,9.83731468319893,0.0021866906222193635,-0.0020287483947836887,0.002486418219711798
1747503151.316511578,-0.050060096271336084,1.081908338740468,9.80713778793812,0.001419237426014844,-0.004119523995979655,0.002034609299739302
1747503151.326538204,-0.07868511308915914,1.0883011727035046,9.812906066179275,0.0008755961317759885,-0.003574644357841345,0.0020666690519185703
1747503151.336523414,-0.05578407271765173,1.086366036683321,9.815060180425645,0.0015321934270856833,-0.002041632736928573,0.0022678033829866663
1747503151.346486456,-0.05436163244303316,1.077074811011553,9.80960999071598,0.0017441724674032589,-0.004888850637585774,0.0018802970596976493
1747503151.356531166,-0.08240798047743739,1.076777918636799,9.803049414753914,0.0016399388390510796,-0.003016559705915176,0.002318070548561912
1747503151.366527167,-0.06098731806501746,1.0831904869526625,9.811595120429994,0.0010971742553624836,-0.00224734021493104,0.0024721406594068007
1747503151.376488168,-0.05388976213987917,1.084594111070037,9.819051489830018,-0.0001054044748369209,-0.003157852625237164,0.001764879195064438
1747503151.386527919,-0.06939537663012743,1.0927647909522058,9.821661686897277,0.0007668149087918898,-0.0037864728151246283,0.002162425947752244
1747503151.396507586,-0.05297217868734151,1.083594310283661,9.78413074851036,0.0013125040932859754,-0.0031320306257107285,0.0022022300631502458
1747503151.406647087,-0.05738415871281177,1.0926264312118292,9.837281938791275,0.001312184722014626,-0.0030292841023500604,0.002099819035669089
1747503151.416480338,-0.04788842210546136,1.0845391472429038,9.818380229473114,0.0008776711997982024,-0.003228707014321158,0.0024131001465451554
1747503151.426454173,-0.04464230835903436,1.0889155688881875,9.772930406928063,0.0008783889399171814,-0.003966783905233855,0.0028031447952481543
1747503151.436505007,-0.06880840754136444,1.086189377680421,9.811334334611892,0.0010948879419696235,-0.003876495722273388,0.002483088228051898
1747503151.446531925,-0.06289774046279491,1.0844472728669643,9.833504637479782,0.0008780164484649094,-0.002157262562136825,0.002151598793519716
1747503151.456538717,-0.018601694621611386,1.089011243954301,9.793332511782646,0.0012050788328149041,-0.004287429540776696,0.0028928530124634182
1747503151.466513427,-0.06043700370937586,1.0920823477953674,9.810147349834443,0.001857926766615309,-0.00408161712278401,0.002688758125314373
1747503151.476497178,-0.06428328846115619,1.0781281869113446,9.845031838417054,0.0015349595776085428,-0.0015803868900289223,0.0027297115091554467
1747503151.486576304,-0.0029103719341219405,1.0841289650648833,9.761002086997033,0.0010952064029808347,-0.003979244066154333,0.0025854992555330546
1747503151.496499096,-0.04984920364804566,1.0853964952379465,9.798372811675073,0.0007642625393643471,-0.004992074657407516,0.0019816175955332293
1747503151.506472931,-0.08220882796682417,1.079664981365204,9.836146409511567,0.001423732030503003,-0.0023562081076840126,0.0024659706561156835
1747503151.516487307,-0.03905909449327737,1.0658163627237083,9.787855424880982,0.0020769259931930906,-0.0031065292978272687,0.002638854023497111
1747503151.526519766,-0.06583108755759895,1.069722595140338,9.802561172246934,0.0013093392488225794,-0.004985529106790805,0.0020911677932783724
1747503151.536488642,-0.08307777903042735,1.0656553450226784,9.835281021595002,0.0009853088759743832,-0.0028176665653445168,0.002003577621367562
1747503151.546485518,-0.056090750042349105,1.065294644907117,9.812816019058229,0.0010957919603240293,-0.0024779621631021457,0.0022411863362480854
1747503151.556528477,-0.04626342148985714,1.0786219842731952,9.802171162962914,0.0012006635509959319,-0.004555749522460309,0.0020082349023461355
1747503151.566506687,-0.0935172516759485,1.075115116685629,9.808321264386178,0.001965831083993404,-0.004094127478049252,0.002470991130889403
1747503151.576498021,-0.07434251393191517,1.0611700189858675,9.844482200145722,0.001752018259608822,-0.0011630093400072212,0.0024292538830321675
1747503151.586530189,-0.04249215468764305,1.0588675316423177,9.788258298039437,0.0006579005277532873,-0.00378652639043562,0.002162304753116699
1747503151.596516856,-0.0790037497971207,1.0667720901221038,9.837569621801377,0.0012005314332387287,-0.004343970219224489,0.0019123568118769173
1747503151.606543482,-0.07978571439161897,1.0705173779278994,9.815799268484117,0.001643580919901223,-0.0023309746563555116,0.002901989423507801
1747503151.616452858,-0.048348342161625625,1.0610664501786233,9.809011820554733,0.0010940361985545836,-0.0029266444695370502,0.0019971660090283313
1747503151.626426693,-0.05662834670394659,1.0728424501419067,9.805245044231416,0.0006574753062315803,-0.004325388688911707,0.0022385829922528027
1747503151.636439319,-0.08651475411839783,1.0749174807965756,9.822662730216981,0.001095499636782501,-0.0032286014241451255,0.002413342535816245
1747503151.646430361,-0.050461343172937635,1.0753607728332282,9.814714025259018,0.0016417464856484034,-0.0022470733786733818,0.0024727463725101985
1747503151.656629654,-0.046822036150842905,1.0696157372742892,9.801612753868104,0.0015295349473334577,-0.003888847172125931,0.002265684817533562
1747503151.666575780,-0.07817683473229409,1.0640850021690131,9.825489274263383,0.001965138376028226,-0.004209440792803732,0.002355514489458696
1747503151.676532989,-0.0762869141343981,1.0623991037160159,9.813522362709046,0.0013138870385102426,-0.002901407377167997,0.0024331841262346357
1747503151.686532782,-0.042611657157540325,1.073048199042678,9.792068928480148,0.0006599482229527735,-0.0025872040427347602,0.0022341684906568063
1747503151.696619200,-0.04816604150924832,1.0638681435585022,9.823149218559266,0.0012014086639376385,-0.0041196306264529884,0.0020343670405053756
1747503151.706519242,-0.06240265945438296,1.0604891838133335,9.798220199346543,0.0006589643617805303,-0.0034531553181605936,0.002290847788719933
1747503151.716467993,-0.05962277892977,1.0729556668549776,9.807081069946289,6.913515658217048e-06,-0.0029020471600079965,0.002431730570831076
1747503151.726435994,-0.052301895911805334,1.0780190632492304,9.808780855536462,0.00011476430598129883,-0.003235364917046356,0.002303308469789062
1747503151.736438120,-0.06960698645096272,1.0732946591824293,9.812533013820648,0.0006588314638003516,-0.0032413788757423515,0.0021949698282878773
1747503151.746486038,-0.05155755906365812,1.0739023310691118,9.806585810780525,0.0008754638189630414,-0.003362865834828501,0.0019707909614493516
1747503151.756533664,-0.05308360012248159,1.081621240451932,9.801963586807252,0.0004380775482597156,-0.00466514718661372,0.0020008534728482227
1747503151.766519165,-0.07547978824004531,1.0916762586683035,9.802306818366052,0.0005518580174507392,-0.0026837228263041166,0.0024454026781070004
1747503151.776498541,-0.052334384503774346,1.0935434938967228,9.818660895824433,0.0008785217078601976,-0.0021509804668115454,0.002260543148124298
1747503151.786474417,-0.035228935265913607,1.07925553008914,9.77887585580349,0.0008767397436024876,-0.003773855309237402,0.0023804353314483026
1747503151.796417918,-0.07812233685515821,1.0973645762354136,9.814460256099702,0.0006573425382885641,-0.0041136122464934645,0.0021427052918950723
1747503151.806440169,-0.06222768152598292,1.0954265896975994,9.816227284669877,0.0012051852032139122,-0.00161823888754195,0.002075683748178758
1747503151.816430628,-0.037685035360045735,1.0878027706593276,9.8061706584692,0.0008769260868564956,-0.0036648256502541535,0.002386968398497403
1747503151.826445004,-0.06831602173391729,1.0941377171874047,9.81082796573639,0.0007667616585738046,-0.004107278656451795,0.002251770581060874
1747503151.836503130,-0.07208726569544524,1.0974807165563107,9.85171169757843,0.0008778303002666453,-0.0022662920910829112,0.0021450657264706153
1747503151.846564173,-0.015855292832711712,1.1011635853350163,9.77923136651516,0.0015319814665106428,-0.003324854151679799,0.0026251821762955114
1747503151.856475299,-0.045585062247700994,1.0897154679894447,9.786891219019891,0.0019644483988434623,-0.004324749686294683,0.002240036807730688
1747503151.866518258,-0.07756762795150281,1.0897590297460558,9.855943912267685,0.0010966697111715897,-0.0022536212699590186,0.0023631963048022183
1747503151.876433176,-0.024805843960493804,1.0858352556824684,9.789810733795166,0.0013124511681607966,-0.0034528354267405943,0.0022915744363845502
1747503151.886450469,-0.06391575898043812,1.0845045755803586,9.799536992311479,0.0022896753736619175,-0.004343436806783498,0.0019135681080465505
1747503151.896648303,-0.09108021441847086,1.081691333949566,9.853728986978531,0.0013146311111546486,-0.0024652916020525785,0.0024593166545053636
1747503151.906477179,-0.03481424433644861,1.0854019770026206,9.834118595123291,0.0009865057380189677,-0.0026960727157107085,0.002227998747440014
1747503151.916555722,-0.0357499198964797,1.0870320345461368,9.775309054255485,0.000981851903025203,-0.005421803787318923,0.0020646718111381732
1747503151.926500681,-0.08950479179620743,1.0749447434395552,9.840455807447434,0.0014235458172861576,-0.0024652380267415866,0.0024594378491409083
1747503151.936463140,-0.04031144931446761,1.0775947746634484,9.819394136667253,0.001422987957858597,-0.0027923246630224066,0.002439838387919281
1747503151.946440475,-0.03736320552416146,1.0771390572935344,9.77663812637329,0.0006569435192551213,-0.005505863450265102,0.0024935510181548167
1747503151.956410517,-0.09052281031385065,1.0750019730627538,9.806486992836,0.0013126632587729997,-0.004197195193201546,0.0025726752506316174
1747503151.966398643,-0.0763396989600733,1.0773513112217188,9.848306279182435,0.0013153760940591926,-0.002029174006416884,0.0024854486626274407
1747503151.976414478,-0.037822618517093363,1.0697911537438631,9.770198587775232,0.0017477631835741748,-0.0045240683084613745,0.0025535600478035184
1747503151.986427687,-0.09354193788953126,1.0746289207041264,9.817269258499145,0.000984218449347388,-0.004325229523424683,0.0022389465761594365
1747503151.996421063,-0.06835340736899526,1.0772119282186032,9.828792951107026,0.001532194207308659,-0.0020416320867427604,0.002267803122912341
1747503152.006509231,-0.041780333840288224,1.0702753031998873,9.795945047736168,0.0015285776137423852,-0.0035806055214493244,0.0019584518651272554
1747503152.016439898,-0.06220424241386354,1.0638058707118034,9.786455601453781,0.001417429519343195,-0.004889009282924148,0.001879933605828178
1747503152.026469733,-0.08618389307521285,1.0639386755973101,9.83999621629715,0.001205345148923912,-0.002683401894586816,0.0024461290656972927
1747503152.036427526,-0.05511475838720799,1.0649521442502738,9.80686589241028,0.0009840589587674575,-0.003260065736156841,0.001868501388678065
1747503152.046411568,-0.0802001540735364,1.0478165133297443,9.802479895949364,0.001201595527340297,-0.004010599146949463,0.002040899847480151
1747503152.056419528,-0.07795397358946503,1.0516196885704994,9.816793295145036,0.0008770852523435199,-0.0027024102068672565,0.0021189337183485377
1747503152.066536570,-0.06485070135444403,1.0528826140612364,9.839541302919388,5.264902478924244e-06,-0.002709119604308845,0.002009020976994062
1747503152.076517113,-0.06047511567827314,1.0591746566444635,9.810222194194795,0.00022450306573953648,-0.003331776029845078,0.0025147845263616946
1747503152.086486864,-0.0711335254367441,1.0648886288702488,9.804975487589836,0.0007667356511412842,-0.0032538892310075935,0.0019772029639000704
1747503152.096442907,-0.07038869979791343,1.0604856023937463,9.83269070506096,0.000442358631726883,-0.002157475693046329,0.0021511144050890252
1747503152.106394574,-0.03907130055595189,1.0655016363412142,9.799805379509927,0.0003318487272124503,-0.0036713738016141157,0.002277418330789423
1747503152.116441617,-0.05270753736142069,1.0715575245022775,9.800401795506477,0.00044015144594746603,-0.004319214784505711,0.002347285217660621
1747503152.126426535,-0.07066557916346938,1.072207661792636,9.828373121023178,0.00011694472848718789,-0.0022478197919867144,0.0024710504278355498
1747503152.136410286,-0.03747854870511219,1.0749657203257084,9.808426514267921,-0.0004337963997739669,-0.00296508189435611,0.0013418056272093022
1747503152.146383245,-0.04143650385551155,1.0920042874664069,9.792243175506592,0.00011152026888587857,-0.004556280074083723,0.0020070233461021774
1747503152.156586038,-0.06783217834308744,1.0857035471498966,9.82033787727356,0.0009882867920165395,-0.00310078009479433,0.002746586951894897
1747503152.166513205,-0.044215406798757614,1.0789652158319951,9.84319815158844,0.00011681185488897712,-0.0020360423092711712,0.0023751722073291686
1747503152.176484123,-0.02224149500252679,1.0950427930802107,9.776525275111199,-0.0008684437627399981,-0.004980310975529931,0.002197688905357875
1747503152.186525624,-0.06955665928311647,1.106517076715827,9.800508214831353,0.00022000924147435298,-0.005095091137917745,0.0020834233000224757
1747503152.196520750,-0.07084249398205429,1.1015699668228627,9.836059870719911,0.0008792126603236808,-0.002035670272948968,0.002376020569777981
1747503152.206614751,-0.02685678682755679,1.1011303292959929,9.795576673150062,0.0005499967955424236,-0.003774013954575776,0.0023800714874673435
1747503152.216524419,-0.0635844137147069,1.1060620902478695,9.792832574844361,0.0007641290562169366,-0.004780301335881176,0.001885740155249824
1747503152.226473170,-0.06928296847734601,1.110576579272747,9.836670320034028,0.0014240242240073687,-0.0016055685865667077,0.002293814456547524
1747503152.236509421,-0.010073162857443094,1.0975062250345946,9.785325919389726,0.0021853072868836085,-0.0022593717733635833,0.0022554638965530823
1747503152.246500755,-0.046449143677018585,1.0917448903620244,9.804918769598007,0.0016355771325430991,-0.004991650736257435,0.0019825868925432612
1747503152.256522714,-0.07700169056653977,1.0994523976743222,9.79868563771248,0.000983181402975641,-0.003484406369225643,0.0017464911600496068
1747503152.266513757,-0.05957611540798098,1.1058344873785972,9.823964320421219,0.0020776703259118216,-0.0026704122223402244,0.0026649862916935134
1747503152.276514425,-0.05068077821284533,1.0719013407826423,9.806519737243653,0.001528098946946849,-0.004440274961624203,0.002124075387757802
1747503152.286518301,-0.07805636381730438,1.0821542872488499,9.82754515528679,0.00043988555245923656,-0.003895662159743552,0.002155529556870835
1747503152.296495635,-0.06311301849782468,1.0974563775211572,9.799338186979295,0.00011481753181741615,-0.002914558035421889,0.0022139635764061062
1747503152.306485511,-0.050399029213003814,1.0926296471804382,9.80275588452816,0.0013113869440220657,-0.0037862062389412954,0.002163031530818479
